#index kx_value ky_value E0(k)  E1(k)   E2(k) .....
0  0  0   3  -3  0  -16.5093  -52.1336  -52.1336  -75.619  -75.619  -113.445  -144.879  -144.879  -146.435  -146.435  -159.487  -180.934  -186.954  -212.303  -212.303  -252.428  -252.428  -297.06  -300.125  -305.392  -305.392  -308.241  -308.918  -308.918  -361.218  -361.218  -362.684  -362.684  -369.979  -376.46  -428.145  -442.11  -442.11  -467.569  -467.569  -486.536  -522.636  -523.064  -523.064  -524.182  -524.182  -525.043  -578.292  -581.197  -581.197  -585.585  -585.585  -587.119  -634.08  -634.08  -634.473  -635.235  -635.235  -637.294  -731.744  -735.641  -735.641  -743.326  -743.326  -747.32  -805.806  -805.98  -805.98  -806.298  -806.298  -806.445  -859.195  -859.748  -859.748  -860.923  -860.923  -861.552  -930.065  -932.231  -932.231  -937.026  -937.026  -939.89  -957.945  -960.088  -960.088  -963.412  -963.412  -964.832  -1109.05  -1109.65  -1109.65  -1110.85  -1110.85  -1111.45  -1150.87  -1150.93  -1150.93  -1151.06  -1151.06  -1151.12  -1208.82  -1209  -1209  -1209.35  -1209.35  -1209.52  -1258.53  -1258.82  -1258.83  -1259.41  -1259.42  -1259.71  -1353.45  -1354.71  -1354.71  -1358  -1358  -1361.2  -1364.1  -1367.1  -1367.1  -1369.98  -1369.99  -1371.04  -1559.45  -1559.48  -1559.49  -1559.53  -1559.6  -1559.61  -1568.2  -1568.21  -1568.21  -1568.23  -1568.23  -1568.25  -1613.1  -1613.17  -1613.18  -1613.3  -1613.32  -1613.38  -1687.29  -1687.44  -1687.46  -1687.75  -1687.77  -1687.92  -1712.84  -1712.97  -1712.99  -1713.25  -1713.28  -1713.41  -1855.64  -1855.93  -1855.94  -1856.54  -1856.55  -1856.88  -1866.99  -1867.29  -1867.3  -1867.85  -1867.86  -1868.11  -2030.37  -2030.37  -2030.46  -2030.46  -2031.46  -2031.46  -2088.11  -2088.12  -2088.16  -2088.17  -2091.19  -2091.19  -2111.16  -2111.22  -2111.22  -2111.31  -2111.35  -2111.4  -2137.76  -2137.81  -2137.88  -2137.93  -2145.93  -2145.93  -2237.5  -2237.67  -2237.73  -2237.9  -2244.24  -2244.32  -2244.66  -2244.87  -2244.91  -2245.04  -2253.89  -2253.89  -2440.84  -2440.91  -2443.32  -2443.39  -2443.42  -2443.46  -2452.65  -2452.72  -2457.32  -2457.34  -2457.49  -2457.5  -2564.86  -2564.86  -2565.77  -2565.77  -2618.13  -2618.13  -2621.63  -2621.63  -2692.37  -2692.38  -2697.08  -2697.08  -2717.65  -2717.67  -2726.82  -2726.82  -2738.87  -2738.91  -2746.14  -2746.17  -2746.21  -2746.21  -2866.31  -2866.39  -2867.46  -2867.54  -2872.66  -2872.66  -2874.29  -2874.29  -3112.35  -3112.36  -3123.56  -3123.58  -3126.32  -3126.32  -3128.99  -3128.99  -3161.45  -3161.45  -3219.06  -3219.08  -3268.41  -3268.44  -3368.32  -3368.36  -3375.39  -3375.43  -3456.92  -3456.92  -3577.76  -3577.89  -3585.39  -3585.52  -3821.68  -3821.7  -3874.78  -3874.84  -3876.23  -3876.25  -3949.01  -3949.04  -3974.2  -3974.26  -4122.83  -4123.97  -4131.47  -4132.58  -4379.7  -4379.72  -4544  -4544.05  -4601.53  -4601.58  -4650.77  -4651.12  -4750.71  -4757.74  -4760.65  -4767.46  -4967.41  -4967.54  -5329.97  -5330.01  -5383.02  -5384.09  -5457.19  -5468.77  -5482.33  -5493.96  -5639.3  -5640.41  -6178.02  -6178.72  -6235.5  -6247.92  -6284.95  -6303.57  -6394.26  -6401.07  -7089.69  -7097.56  -7143.67  -7177.86  -7228.14  -7253.34  -8064.08  -8102.89  -8133.04  -8188.67  -9108.51  -9188.63  -10239.3  
1  0  0.0191463   2.53209  -2.53209  -0.889743  -14.4535  -51.1551  -54.6121  -75.6346  -78.9229  -112.927  -129.651  -132.718  -149.497  -158.772  -172.683  -179.201  -188.523  -210.154  -220.288  -252.366  -257.511  -268.629  -285.279  -287.387  -303.153  -325.797  -326.541  -331.143  -342.969  -349.232  -352.567  -382.863  -390.012  -403.677  -407.07  -427.463  -454.425  -462.665  -469.773  -487.94  -496.351  -496.519  -514.146  -529.417  -551.603  -551.717  -555.307  -555.548  -580.806  -582.05  -608.183  -608.817  -613.074  -613.739  -639.87  -666.356  -666.892  -683.237  -690.938  -691.677  -738.028  -741.581  -741.729  -771.631  -771.633  -791.884  -792.379  -799.528  -826.785  -826.891  -841.274  -841.291  -866.679  -877.366  -890.147  -893.748  -896.046  -896.602  -897.284  -931.445  -937.511  -937.532  -963.368  -963.448  -1002.23  -1006.86  -1011.17  -1032.8  -1042.16  -1043.33  -1068.89  -1109.09  -1109.09  -1112.46  -1112.46  -1127.11  -1166.66  -1166.68  -1177.13  -1180.35  -1181.55  -1193.37  -1193.38  -1221.49  -1221.51  -1236.24  -1250.3  -1250.3  -1275.57  -1282.42  -1294.36  -1297.07  -1297.58  -1305.05  -1305.06  -1344.26  -1348.48  -1348.49  -1380.2  -1380.2  -1430.66  -1431.51  -1446.06  -1452.55  -1463.37  -1486.27  -1486.29  -1511.01  -1511.11  -1517.18  -1565.21  -1565.25  -1570.2  -1570.21  -1591.52  -1608.72  -1608.72  -1617.07  -1631.71  -1631.77  -1652.92  -1653.12  -1659.01  -1663.46  -1663.46  -1675.81  -1675.87  -1712.46  -1729.33  -1729.34  -1763.41  -1764.48  -1773.4  -1773.41  -1782.22  -1782.34  -1786.84  -1812.32  -1848.01  -1848.06  -1879.04  -1879.05  -1920.32  -1944.64  -1944.78  -1962.58  -1963.61  -1975.01  -1976.09  -1978.06  -2015.06  -2015.27  -2027.92  -2031.67  -2035.03  -2086.05  -2086.71  -2086.79  -2093.81  -2112.85  -2112.95  -2127.67  -2134.81  -2143.31  -2143.34  -2144.69  -2160.55  -2168.8  -2197.65  -2197.71  -2204.22  -2210.5  -2210.71  -2214.05  -2221.96  -2258.89  -2272.19  -2272.24  -2325.66  -2325.72  -2334.61  -2335.22  -2353.02  -2357.35  -2359.83  -2366.81  -2432.96  -2439.89  -2441.67  -2463.77  -2464.18  -2497.61  -2502.31  -2544.2  -2544.23  -2556.61  -2568.49  -2568.69  -2573.11  -2603.03  -2622.33  -2627.99  -2628.91  -2628.91  -2636.2  -2666.4  -2682.26  -2685.57  -2740.26  -2746.99  -2748.77  -2749.02  -2750.41  -2754.01  -2771.34  -2792.04  -2800.04  -2840.13  -2859.03  -2859.07  -2897.01  -2903.56  -2965.8  -2972.16  -2995.13  -3005.15  -3009.68  -3092.11  -3102.55  -3139.17  -3139.46  -3148.52  -3202.8  -3231.76  -3236.41  -3241.74  -3277.19  -3288.17  -3330.62  -3333.1  -3342.44  -3416.85  -3458.26  -3467.95  -3470.28  -3551.3  -3615.53  -3698.14  -3745.16  -3752.45  -3799.31  -3863.55  -3865.09  -3898.8  -3908.96  -3952.95  -4013.88  -4018.72  -4062.6  -4082.59  -4176.5  -4244.4  -4256.03  -4352.98  -4460.69  -4517.01  -4571.19  -4628.32  -4645.59  -4684.68  -4699.01  -4739.19  -4823.41  -4843.99  -4875.91  -4926.61  -5239.48  -5293.55  -5359.28  -5403.13  -5421.1  -5476.51  -5516.79  -5552.66  -5584.7  -5595.83  -6080.75  -6137.05  -6191.49  -6275.5  -6277.22  -6328.02  -6345.61  -6405.28  -6985.26  -7040.58  -7116.55  -7159.72  -7203.25  -7284.74  -7953.09  -8021.28  -8080.92  -8216.14  -8990.75  -9072.08  -10115.1  
2  0  0.0382926   1.3473  -1.3473  -3.3203  -10.2431  -49.2493  -60.3339  -73.851  -87.6629  -107.593  -121.476  -121.921  -149.701  -161.773  -178.602  -187.632  -200.187  -216.918  -225.191  -238.402  -253.299  -264.621  -268.616  -280.277  -294.394  -321.833  -325.489  -343.953  -348.463  -350.335  -375.105  -394.245  -401.047  -408.181  -412.638  -419.154  -452.224  -463.627  -467.819  -470.846  -472.983  -480.23  -526.098  -526.834  -529.545  -532.77  -556.176  -580.858  -581.119  -594.534  -595.715  -636.131  -637.131  -637.271  -641.339  -643.764  -673.129  -697.769  -704.821  -706.231  -727.551  -737.32  -737.379  -749.305  -749.434  -751.423  -794.396  -795.198  -803.213  -828.847  -850.839  -851.095  -851.155  -858.706  -877.122  -877.174  -924.505  -924.52  -935.061  -935.075  -951.738  -978.089  -979.043  -989.65  -989.663  -990.092  -1005.71  -1048.18  -1062.65  -1063.78  -1069.03  -1069.03  -1081.6  -1098.25  -1106.7  -1116.65  -1116.65  -1124.56  -1124.57  -1189.89  -1190.15  -1197.85  -1204.88  -1234.93  -1235.04  -1236.45  -1236.45  -1254.41  -1255.61  -1291.32  -1291.32  -1324.62  -1338.65  -1338.66  -1357.68  -1357.68  -1370.32  -1382.69  -1401.81  -1401.81  -1407.47  -1407.59  -1424.35  -1432.51  -1463.12  -1463.22  -1498.58  -1505.15  -1505.48  -1519.9  -1519.94  -1524.16  -1533.28  -1540.26  -1573.21  -1573.25  -1575.97  -1576  -1649.2  -1649.26  -1658.55  -1658.55  -1671.36  -1672.51  -1703.23  -1703.29  -1715.22  -1715.22  -1741.31  -1741.46  -1761.33  -1769.87  -1769.88  -1813.28  -1814.78  -1838.89  -1838.94  -1844.41  -1844.42  -1871.05  -1889.14  -1898.02  -1898.02  -1914.6  -1919.67  -1920.5  -1921.49  -1922.51  -1923.53  -1974.98  -1978.79  -2020.73  -2027.87  -2033.55  -2033.61  -2040.9  -2047.66  -2063.96  -2065.08  -2084.92  -2094.27  -2117.48  -2117.58  -2143.92  -2144  -2190  -2197.72  -2198.32  -2198.34  -2228.6  -2228.86  -2259.38  -2261.03  -2264.18  -2264.24  -2266.73  -2308.15  -2308.21  -2312.6  -2312.71  -2320.67  -2320.79  -2374.98  -2376.71  -2413.18  -2413.24  -2424.06  -2431.42  -2440.44  -2452.25  -2473.48  -2482.17  -2482.27  -2482.32  -2482.87  -2496.95  -2521.83  -2529.33  -2551.35  -2625.73  -2628  -2629.66  -2646.95  -2646.98  -2679.19  -2684.01  -2684.22  -2691.79  -2692.74  -2744.88  -2748.22  -2751.21  -2752.83  -2802.62  -2809.34  -2816.63  -2876.18  -2877  -2884.06  -2884.44  -2901.03  -2930.48  -2937.19  -2975.03  -2975.07  -3023.64  -3067.85  -3074.08  -3077.86  -3093.62  -3143.66  -3157.43  -3158.51  -3187.55  -3212.41  -3292.47  -3302.94  -3352.38  -3357.15  -3357.65  -3361.26  -3422.93  -3462.65  -3466.85  -3528.01  -3571.75  -3631.8  -3648.81  -3669.32  -3725.68  -3779.92  -3814  -3853.42  -3854.95  -3907.76  -3976.58  -4032.92  -4044.99  -4087.22  -4135.51  -4161.57  -4224.37  -4329.4  -4360.01  -4378.26  -4432.37  -4498.09  -4541.99  -4646.88  -4713.47  -4723.72  -4767.77  -4834.17  -4887.39  -4888.91  -4990.9  -5149.68  -5205.96  -5260.19  -5334.54  -5397.13  -5512.93  -5532.78  -5571.71  -5634.92  -5708.23  -5984.34  -6038.58  -6104.93  -6157.98  -6261.49  -6377.17  -6444.04  -6514.11  -6881.56  -6940.26  -7003.33  -7076.63  -7310.89  -7395.87  -7843.55  -7910.26  -7980.3  -8332.5  -8874.95  -8959.8  -9994.13  
3  0  0.0574389   0  -0  -6.47163  -6.47163  -48.2766  -67.6204  -67.6204  -94.2656  -104.284  -117.804  -117.804  -154.408  -154.408  -189.508  -197.571  -201.262  -201.262  -245.986  -245.986  -248.067  -248.067  -252.222  -282.761  -299.356  -315.926  -315.926  -357.441  -357.441  -371.031  -371.031  -371.352  -388.393  -428.206  -433.907  -433.907  -444.447  -444.447  -444.869  -483.26  -483.26  -491.817  -499.966  -499.966  -501.844  -572.548  -578.056  -578.056  -601.402  -601.402  -608.381  -611.248  -611.889  -611.889  -665.905  -665.905  -666.091  -704.5  -704.5  -704.587  -739.617  -741.117  -741.117  -761.72  -761.72  -764.172  -768.347  -769.349  -769.349  -814.339  -814.339  -814.488  -912.095  -912.095  -913.215  -913.287  -915.725  -915.725  -921.455  -921.455  -922.805  -972.392  -972.423  -972.423  -1022.53  -1022.53  -1022.55  -1029.22  -1029.24  -1029.24  -1083.03  -1083.03  -1083.06  -1121.45  -1121.95  -1121.95  -1128.95  -1128.95  -1129.5  -1158.31  -1158.42  -1158.42  -1183.86  -1183.87  -1183.89  -1280.38  -1280.38  -1280.38  -1330.34  -1330.34  -1331.03  -1331.5  -1332.47  -1332.47  -1335.77  -1335.77  -1336.05  -1408.77  -1408.77  -1408.78  -1416.11  -1416.12  -1416.21  -1434.36  -1434.36  -1434.38  -1474.12  -1474.12  -1474.16  -1523.87  -1523.88  -1523.93  -1581.78  -1581.92  -1581.92  -1583  -1583.01  -1583.16  -1624.3  -1624.31  -1624.36  -1631.39  -1631.4  -1631.45  -1709.26  -1709.26  -1709.35  -1767.13  -1767.13  -1767.16  -1816.62  -1816.62  -1816.68  -1832.62  -1832.7  -1832.71  -1832.9  -1832.91  -1832.99  -1866.71  -1866.8  -1867.75  -1916.85  -1916.85  -1916.91  -1920.18  -1920.22  -1923.96  -1924  -1924.03  -1924.27  -1994.5  -1994.56  -1999.98  -2019.93  -2020  -2030.7  -2125.03  -2125.08  -2125.12  -2125.18  -2125.27  -2125.32  -2168.97  -2169.02  -2170.11  -2170.16  -2176.33  -2178.04  -2201.81  -2201.89  -2202.78  -2255.16  -2255.2  -2258.91  -2329.45  -2329.5  -2334.51  -2354.8  -2354.88  -2364.73  -2379.45  -2380.47  -2417.93  -2417.97  -2418  -2418.01  -2425.52  -2425.58  -2437.2  -2440.08  -2486.66  -2494.2  -2503.57  -2503.58  -2504.72  -2504.74  -2510.37  -2512.05  -2586.56  -2592.72  -2593.66  -2602.05  -2752.45  -2752.52  -2752.55  -2756.47  -2757.44  -2759.14  -2760.86  -2766.86  -2796.48  -2796.76  -2802.97  -2803.17  -2814.15  -2816.83  -2863.56  -2870.58  -2955.86  -2963.48  -2969.18  -2970.56  -2978.31  -3009.07  -3083.2  -3087.59  -3094.15  -3094.19  -3094.8  -3108.62  -3173.11  -3179.07  -3179.29  -3180.73  -3257.19  -3258.33  -3374.81  -3427.98  -3469.9  -3471.5  -3476.71  -3502.21  -3508.13  -3514.3  -3527.44  -3594.36  -3651.94  -3676.57  -3685.37  -3701.25  -3801.17  -3808.22  -3847.67  -3933.02  -4010.58  -4018.16  -4055.23  -4112.79  -4162.22  -4264.41  -4276.51  -4296.51  -4308.95  -4349.6  -4423.8  -4448.98  -4478.84  -4598.11  -4606.72  -4799.3  -4852.88  -4854.37  -4931.13  -4958.79  -5060.75  -5109.3  -5118.26  -5167.62  -5269.8  -5281.74  -5484.07  -5605.77  -5668.25  -5722.51  -5825.35  -5888.62  -5942.14  -6020.33  -6047.91  -6198.38  -6478.49  -6544.72  -6628.63  -6778.88  -6841.27  -6895.47  -6998.27  -7420.61  -7511.13  -7735.38  -7801.49  -7885.37  -8451.96  -8761.23  -8851.64  -9876.22  
4  0.0165812  0.0478657   0.879385  -0.879385  -4.37203  -8.82193  -49.2537  -60.4647  -75.3978  -89.2504  -106.363  -112.863  -127.499  -151.542  -159.117  -172.036  -199.235  -210.537  -214.339  -228.713  -230.494  -238.192  -262.283  -282.762  -286.088  -291.641  -303.437  -327.329  -336.439  -356.986  -359.303  -390.102  -394.211  -394.607  -407.098  -418.884  -419.039  -443.58  -453.433  -456.434  -476.124  -477.67  -495.833  -509.534  -515.758  -540.812  -548.472  -552.489  -553.216  -590.038  -591.617  -607.571  -627.908  -641.193  -641.854  -655.528  -672.208  -672.509  -683.097  -697.213  -697.328  -709.531  -730.364  -730.605  -763.9  -763.975  -771.169  -786.355  -786.441  -807.596  -809.468  -830.564  -840.673  -859.765  -861.547  -880.594  -899.824  -914.388  -914.397  -949.983  -951.432  -951.447  -979.998  -987.419  -989.988  -989.993  -1008.89  -1008.96  -1044.07  -1044.6  -1050.31  -1057.22  -1063.79  -1063.81  -1109.83  -1111.4  -1111.43  -1137.23  -1137.23  -1156.57  -1156.57  -1163.49  -1191  -1191.62  -1193.55  -1238.63  -1246.89  -1259.86  -1260.64  -1264.23  -1322.12  -1324.72  -1324.72  -1329.06  -1329.06  -1347.72  -1370.08  -1370.08  -1379.59  -1379.59  -1411.95  -1413.14  -1426.91  -1426.92  -1445.86  -1445.87  -1481.48  -1481.49  -1490  -1490.01  -1495.52  -1496.7  -1510.82  -1556.34  -1556.35  -1568.71  -1592.73  -1592.74  -1608.43  -1611.07  -1611.07  -1618.43  -1662.67  -1662.83  -1666.35  -1715.96  -1718.7  -1725.82  -1746.09  -1746.26  -1760.93  -1761.02  -1813.47  -1813.56  -1816.18  -1817.52  -1817.55  -1823.31  -1829.6  -1829.6  -1867.99  -1868.03  -1872.15  -1872.21  -1927.08  -1927.22  -1933.93  -1933.99  -1946.65  -1946.71  -1976.32  -1977.96  -1978.03  -2000.23  -2000.28  -2024.52  -2024.65  -2032.66  -2083.14  -2083.2  -2087.09  -2108.37  -2134.93  -2134.97  -2138.92  -2140.43  -2153.33  -2153.37  -2214.74  -2219.72  -2219.77  -2240.14  -2260.28  -2261.26  -2284.5  -2286.21  -2314.63  -2317.22  -2317.28  -2318.18  -2319.43  -2320.45  -2375.96  -2379.08  -2380.48  -2386.73  -2388.9  -2390.06  -2414.87  -2414.89  -2424.5  -2430.41  -2433.13  -2437.64  -2504.77  -2512.38  -2529.44  -2533.67  -2533.74  -2536.58  -2558.23  -2565.52  -2598.43  -2605.29  -2628.67  -2637.91  -2637.99  -2688.13  -2695.77  -2702.51  -2742  -2762.61  -2767.58  -2781.89  -2786.77  -2822.13  -2840.58  -2849.77  -2869.01  -2874.94  -2878.59  -2888.65  -2932.91  -2942.89  -2972.77  -2979.48  -3007.29  -3008.71  -3050.56  -3050.79  -3052.61  -3060.77  -3091.28  -3091.5  -3157.53  -3198.1  -3226.33  -3288.75  -3341.63  -3348.2  -3393.22  -3447.25  -3482.63  -3496.89  -3501.43  -3520.36  -3567.2  -3576.74  -3611.12  -3630.99  -3705.32  -3716.02  -3719.19  -3758.82  -3793.05  -3896.07  -3958.23  -3986.61  -4134.85  -4180.5  -4191.19  -4215.33  -4245.47  -4269.45  -4319.82  -4335.18  -4379.08  -4382.59  -4483.97  -4518.23  -4560.84  -4726.03  -4885.71  -4940  -4972.78  -5006.39  -5029.07  -5059.59  -5083.3  -5157.66  -5163.09  -5220.27  -5355.92  -5699.13  -5757.9  -5793.48  -5821.09  -5847.72  -5894.4  -5914.08  -5967.15  -6070.66  -6577.34  -6644.19  -6676.73  -6714.25  -6735.44  -6798.53  -6871.83  -7525.01  -7609.98  -7624.75  -7691.49  -7761.53  -8560.56  -8642.2  -8727.07  -9747.44  
5  0.0165812  0.0287194   1.73205  -1.73205  -2.50261  -11.4851  -50.2307  -57.4546  -76.6051  -83.5349  -110.2  -117.792  -130.036  -151.78  -159.2  -171.104  -190.278  -202.154  -209.02  -225.059  -244.893  -252.143  -258.752  -271.193  -299.239  -305.819  -309.469  -313.616  -328.984  -364.762  -367.362  -372.21  -373.429  -381.748  -421.067  -430.375  -431.439  -433.85  -443.362  -445.239  -495.94  -499.412  -503.646  -505.601  -524.051  -524.157  -546.659  -559.483  -561.348  -580.457  -580.633  -610.275  -611.046  -636.171  -647.448  -647.995  -667.529  -670.385  -692.393  -693.062  -705.064  -705.496  -722.461  -726.963  -759.563  -761.4  -798.733  -799.177  -806.222  -806.257  -823.949  -830.504  -853.521  -862.624  -862.651  -872.236  -872.348  -913.946  -914.169  -918.72  -918.726  -968.569  -969.355  -976.874  -992.886  -992.918  -1028.8  -1028.95  -1035.11  -1036.49  -1046.4  -1046.42  -1075.87  -1083.92  -1085.93  -1086.47  -1140.72  -1141.43  -1151.19  -1151.19  -1184.29  -1184.29  -1206.21  -1206.21  -1210.69  -1220.17  -1253.32  -1267.66  -1267.68  -1273.12  -1273.12  -1280.1  -1280.2  -1316.79  -1316.8  -1336.93  -1337.15  -1391.44  -1392.01  -1405.91  -1416.37  -1416.5  -1420.62  -1420.63  -1466.6  -1466.7  -1470.89  -1471.05  -1489.65  -1489.66  -1514.18  -1524.81  -1536.95  -1537.49  -1559.28  -1559.38  -1581.3  -1581.38  -1616.01  -1616.05  -1656.32  -1656.33  -1670.76  -1670.82  -1680.35  -1691.38  -1709.54  -1709.63  -1739.72  -1745.2  -1745.25  -1753.92  -1753.94  -1764.07  -1764.23  -1799  -1799.05  -1830.05  -1830.16  -1866.41  -1866.5  -1873.9  -1874.41  -1920.17  -1923.06  -1923.74  -1934.79  -1934.83  -1977.53  -1977.63  -1979.46  -1979.51  -2018.4  -2018.46  -2030.76  -2031.7  -2041.7  -2051.8  -2052.34  -2053.19  -2085.12  -2088.8  -2105.57  -2105.64  -2151.05  -2157.57  -2195.05  -2201.51  -2202.54  -2204.06  -2213.55  -2213.6  -2236.57  -2248.24  -2258.08  -2261.28  -2300.09  -2307.55  -2310.43  -2313.01  -2320.07  -2324.83  -2324.99  -2369.16  -2376.35  -2379.74  -2380.7  -2386.92  -2394.73  -2434.07  -2437.53  -2440.38  -2447.88  -2499.88  -2505.97  -2520.39  -2534.09  -2540.98  -2543.89  -2552.31  -2565.54  -2578.34  -2584.99  -2624.02  -2631.83  -2639.07  -2648.82  -2655.79  -2657  -2671  -2682.32  -2717.65  -2724.44  -2756.77  -2757.05  -2810.18  -2811.02  -2861.94  -2862.5  -2876.92  -2879.99  -2893.97  -2920.77  -2947.11  -2955.56  -2973.7  -2980.34  -2994.08  -3011.99  -3025.74  -3030.57  -3066.29  -3094.51  -3140.68  -3194.12  -3210.63  -3230.7  -3268.15  -3331.47  -3335.76  -3365.09  -3374.51  -3414.86  -3430.91  -3485.17  -3559.57  -3594.65  -3613  -3615.99  -3648.81  -3714.58  -3727.11  -3758.21  -3758.48  -3840.82  -3863.4  -3932.11  -4055.52  -4105.58  -4109.66  -4175.42  -4202.53  -4219.3  -4296.21  -4333.16  -4352.54  -4401.07  -4406.73  -4481.13  -4534.55  -4679.56  -4762.17  -4799.01  -4855.36  -4909.86  -4994.05  -5046.56  -5061.03  -5115.11  -5180.84  -5224.69  -5338.38  -5406.29  -5605.75  -5661.15  -5737.28  -5780.45  -5888.33  -5944.64  -5999.08  -6083.12  -6135.64  -6475.84  -6544.2  -6603.86  -6778.87  -6834.21  -6910.2  -6953.37  -7415.82  -7497.29  -7732.74  -7800.96  -7860.6  -8442.65  -8756.45  -8837.8  -9866.9  
6  0.0110541  0.0191463   2.38633  -2.38633  -1.17462  -13.8682  -51.014  -55.1286  -75.9832  -79.6369  -112.612  -126.248  -132.305  -151.397  -157.104  -177.043  -177.369  -190.99  -209.864  -221.397  -253.693  -257.309  -268.203  -269.729  -302.371  -305.987  -307.804  -328.711  -332.315  -346.902  -350.208  -366.272  -368.617  -397.635  -405.323  -409.65  -430.56  -441.145  -469.04  -470.525  -478.427  -486.58  -520.515  -523.418  -524.223  -527.261  -531.771  -579.632  -579.751  -581.402  -581.539  -584.925  -584.949  -636.251  -639.043  -642.817  -643.671  -669.016  -691.451  -694.991  -706.157  -707.022  -737.821  -738.226  -777.593  -778.355  -792.001  -793.575  -806.019  -806.033  -814.826  -859.487  -861.571  -862.25  -866.884  -877.205  -877.457  -898.437  -899.045  -924.724  -924.738  -931.452  -932.347  -978.016  -978.071  -1001.73  -1003.75  -1020.23  -1034.31  -1041.36  -1065.91  -1065.92  -1069.31  -1069.47  -1126.36  -1126.83  -1150.94  -1150.94  -1158.71  -1158.73  -1178.52  -1179.16  -1204.57  -1207.44  -1207.44  -1236.24  -1236.35  -1258.2  -1265.55  -1265.57  -1267.95  -1293.72  -1293.98  -1298.44  -1298.51  -1330.5  -1330.51  -1345.68  -1346.25  -1399.66  -1399.67  -1430.95  -1431.12  -1458.81  -1461.07  -1463.34  -1463.56  -1471.48  -1514.07  -1514.09  -1518.05  -1518.18  -1559.41  -1559.51  -1587.3  -1587.8  -1614.54  -1614.58  -1622.6  -1622.71  -1626.08  -1626.08  -1658.79  -1658.89  -1676.62  -1676.68  -1681.5  -1712.8  -1712.95  -1730.65  -1730.71  -1737.91  -1749.03  -1782.76  -1782.89  -1788.26  -1788.28  -1817.64  -1818.12  -1819.36  -1819.41  -1908.83  -1908.87  -1920.27  -1920.36  -1939.79  -1939.84  -1977.28  -1977.53  -1978.84  -1983.51  -1990.27  -2029.31  -2029.41  -2030.62  -2031.58  -2048.37  -2048.42  -2086.44  -2089.87  -2113.53  -2114.07  -2143.67  -2144.28  -2144.73  -2149.89  -2149.95  -2151.6  -2178.43  -2178.47  -2200.89  -2204.01  -2208.54  -2216.87  -2243.29  -2252.78  -2260.48  -2279.41  -2287.03  -2303.63  -2315.34  -2337.03  -2344.67  -2363.79  -2364.05  -2373.11  -2380.88  -2394.61  -2401.66  -2440.69  -2441.63  -2494.46  -2497.97  -2503.43  -2509.99  -2534.38  -2540.79  -2564.27  -2565.64  -2569.82  -2584.75  -2592.1  -2598.76  -2599.25  -2607.99  -2622.91  -2666.41  -2673.74  -2687.71  -2692.04  -2720.45  -2727.27  -2743.02  -2745.76  -2766.34  -2773.06  -2815.47  -2822.32  -2822.83  -2830.04  -2850.49  -2896.81  -2921.47  -2956.41  -2970.38  -2971.75  -3017.61  -3023.39  -3024.02  -3038  -3060.72  -3080.45  -3132.09  -3195.74  -3216.41  -3218.91  -3252.47  -3283.55  -3291.69  -3302.69  -3359.73  -3375.12  -3411.35  -3412.54  -3468.12  -3495.68  -3531.74  -3669.57  -3699.58  -3701.7  -3723.17  -3754.65  -3775.78  -3792.95  -3827.79  -3949  -3976.82  -3994.83  -4030.42  -4100.18  -4135.02  -4195.91  -4260.55  -4265.05  -4310.34  -4378.01  -4434.97  -4486.5  -4570.84  -4606.89  -4713.23  -4770.19  -4774.48  -4822.01  -4829.56  -4916.08  -4951.49  -5149.92  -5203.45  -5273.18  -5307.98  -5437.81  -5483.1  -5513.08  -5567.75  -5647.99  -5682.41  -5984.1  -6041.02  -6092.77  -6186.66  -6222.08  -6375.95  -6444.74  -6502.22  -6881.72  -6936.32  -7016.4  -7050.81  -7308.83  -7389.65  -7842.33  -7910.95  -7968.41  -8328.36  -8872.9  -8953.57  -9989.99  
7  0.00552706  0.00957314   2.83975  -2.83975  -0.30069  -15.7705  -51.7947  -52.9985  -75.6896  -76.7079  -113.403  -136.089  -138.048  -150.384  -152.619  -165.393  -183.184  -183.895  -211.519  -215.6  -252.413  -254.384  -284.011  -288.337  -299.259  -306.08  -306.369  -325.311  -328.714  -345.851  -346.586  -364.805  -367.286  -385.005  -388.718  -415.82  -437.786  -447.541  -465.639  -473.691  -495.66  -496.797  -499.023  -523.698  -523.781  -551.352  -552.371  -553.414  -558.136  -582.656  -582.661  -608.396  -608.703  -609.117  -613.01  -636.771  -636.891  -662.092  -664.574  -702.477  -721.74  -723.312  -757.096  -758.589  -771.508  -771.867  -777.717  -806.095  -806.097  -825.396  -826.753  -841.206  -841.489  -860.74  -860.746  -895.091  -896.119  -896.296  -902.474  -925.983  -927.318  -933.097  -933.468  -963.796  -964.791  -970.274  -972.58  -995.417  -1000.88  -1064.68  -1087.74  -1087.76  -1109.5  -1109.64  -1133.79  -1133.82  -1151.07  -1151.07  -1156.9  -1167.41  -1167.82  -1193.18  -1193.3  -1208.65  -1208.65  -1217.87  -1218.47  -1251.09  -1251.39  -1260.84  -1260.85  -1301.44  -1302.02  -1306.74  -1316.4  -1329.15  -1329.52  -1346.61  -1346.62  -1379.51  -1379.54  -1396.49  -1397.03  -1409.52  -1419.38  -1510.75  -1511.07  -1513.38  -1540.82  -1540.83  -1559.53  -1559.63  -1564.86  -1565  -1596.42  -1596.42  -1608.81  -1608.9  -1613.7  -1613.73  -1624.33  -1637.8  -1638.22  -1662.49  -1662.64  -1666.16  -1666.33  -1683.62  -1683.67  -1718.69  -1718.75  -1735.56  -1735.77  -1763.67  -1764.08  -1796.53  -1807.74  -1823.14  -1823.17  -1841.46  -1841.51  -1883.41  -1883.44  -1901.72  -1901.76  -1917.05  -1928.4  -1974.92  -1975.01  -2030.5  -2031.5  -2032.5  -2032.59  -2046.79  -2078.86  -2078.92  -2083.07  -2083.18  -2086.62  -2087.7  -2087.75  -2090.91  -2139.29  -2143.33  -2144.37  -2144.76  -2147.55  -2147.91  -2176.2  -2176.73  -2176.79  -2194.46  -2195.52  -2195.6  -2202.42  -2223.9  -2231.7  -2260.01  -2267.91  -2288.07  -2295.43  -2307.14  -2315.34  -2371.73  -2383.49  -2403.21  -2403.84  -2421.71  -2428.37  -2473.51  -2478.79  -2492.74  -2497.96  -2502.4  -2503.32  -2513.55  -2527.56  -2555.8  -2559.33  -2565.73  -2621.99  -2628.07  -2628.77  -2633.77  -2656.78  -2664.6  -2666.31  -2681.46  -2693.71  -2702.22  -2709.45  -2731.84  -2754.42  -2782.22  -2783.74  -2784.15  -2793.13  -2799.82  -2816.1  -2820.96  -2822.76  -2851.15  -2896.93  -2918.81  -2941.77  -3033.86  -3047.83  -3068.38  -3082.97  -3092.02  -3092.29  -3149.49  -3161.83  -3170.72  -3199.43  -3203.04  -3231.67  -3289.15  -3293.07  -3312.12  -3339.08  -3373.78  -3415.5  -3432.73  -3451.78  -3494.66  -3522.45  -3641.99  -3669.53  -3745.25  -3788.44  -3798.49  -3825.49  -3871.43  -3898.89  -3899.37  -3952.14  -4025.06  -4035.66  -4053.01  -4058.6  -4198  -4220.66  -4287.29  -4319.61  -4460.6  -4517.99  -4567.82  -4628.24  -4661.47  -4680.51  -4685.62  -4735.74  -4839.03  -4857.71  -4870.46  -4898  -5239.57  -5292.74  -5365.63  -5393.52  -5421.16  -5475.39  -5538.29  -5558.81  -5560.96  -5586.6  -6080.66  -6137.99  -6188.04  -6276.9  -6291.13  -6309.81  -6345.99  -6402.11  -6985.33  -7039.47  -7122.69  -7150.49  -7202.75  -7283.17  -7952.78  -8021.66  -8077.75  -8215.1  -8990.25  -9070.52  -10114.1  
8  0  0   3  -3  0  -16.5093  -52.1336  -52.1336  -75.619  -75.619  -113.445  -144.879  -144.879  -146.435  -146.435  -159.487  -180.934  -186.954  -212.303  -212.303  -252.428  -252.428  -297.06  -300.125  -305.392  -305.392  -308.241  -308.918  -308.918  -361.218  -361.218  -362.684  -362.684  -369.979  -376.46  -428.145  -442.11  -442.11  -467.569  -467.569  -486.536  -522.636  -523.064  -523.064  -524.182  -524.182  -525.043  -578.292  -581.197  -581.197  -585.585  -585.585  -587.119  -634.08  -634.08  -634.473  -635.235  -635.235  -637.294  -731.744  -735.641  -735.641  -743.326  -743.326  -747.32  -805.806  -805.98  -805.98  -806.298  -806.298  -806.445  -859.195  -859.748  -859.748  -860.923  -860.923  -861.552  -930.065  -932.231  -932.231  -937.026  -937.026  -939.89  -957.945  -960.088  -960.088  -963.412  -963.412  -964.832  -1109.05  -1109.65  -1109.65  -1110.85  -1110.85  -1111.45  -1150.87  -1150.93  -1150.93  -1151.06  -1151.06  -1151.12  -1208.82  -1209  -1209  -1209.35  -1209.35  -1209.52  -1258.53  -1258.82  -1258.83  -1259.41  -1259.42  -1259.71  -1353.45  -1354.71  -1354.71  -1358  -1358  -1361.2  -1364.1  -1367.1  -1367.1  -1369.98  -1369.99  -1371.04  -1559.45  -1559.48  -1559.49  -1559.53  -1559.6  -1559.61  -1568.2  -1568.21  -1568.21  -1568.23  -1568.23  -1568.25  -1613.1  -1613.17  -1613.18  -1613.3  -1613.32  -1613.38  -1687.29  -1687.44  -1687.46  -1687.75  -1687.77  -1687.92  -1712.84  -1712.97  -1712.99  -1713.25  -1713.28  -1713.41  -1855.64  -1855.93  -1855.94  -1856.54  -1856.55  -1856.88  -1866.99  -1867.29  -1867.3  -1867.85  -1867.86  -1868.11  -2030.37  -2030.37  -2030.46  -2030.46  -2031.46  -2031.46  -2088.11  -2088.12  -2088.16  -2088.17  -2091.19  -2091.19  -2111.16  -2111.22  -2111.22  -2111.31  -2111.35  -2111.4  -2137.76  -2137.81  -2137.88  -2137.93  -2145.93  -2145.93  -2237.5  -2237.67  -2237.73  -2237.9  -2244.24  -2244.32  -2244.66  -2244.87  -2244.91  -2245.04  -2253.89  -2253.89  -2440.84  -2440.91  -2443.32  -2443.39  -2443.42  -2443.46  -2452.65  -2452.72  -2457.32  -2457.34  -2457.49  -2457.5  -2564.86  -2564.86  -2565.77  -2565.77  -2618.13  -2618.13  -2621.63  -2621.63  -2692.37  -2692.38  -2697.08  -2697.08  -2717.65  -2717.67  -2726.82  -2726.82  -2738.87  -2738.91  -2746.14  -2746.17  -2746.21  -2746.21  -2866.31  -2866.39  -2867.46  -2867.54  -2872.66  -2872.66  -2874.29  -2874.29  -3112.35  -3112.36  -3123.56  -3123.58  -3126.32  -3126.32  -3128.99  -3128.99  -3161.45  -3161.45  -3219.06  -3219.08  -3268.41  -3268.44  -3368.32  -3368.36  -3375.39  -3375.43  -3456.92  -3456.92  -3577.76  -3577.89  -3585.39  -3585.52  -3821.68  -3821.7  -3874.78  -3874.84  -3876.23  -3876.25  -3949.01  -3949.04  -3974.2  -3974.26  -4122.83  -4123.97  -4131.47  -4132.58  -4379.7  -4379.72  -4544  -4544.05  -4601.53  -4601.58  -4650.77  -4651.12  -4750.71  -4757.74  -4760.65  -4767.46  -4967.41  -4967.54  -5329.97  -5330.01  -5383.02  -5384.09  -5457.19  -5468.77  -5482.33  -5493.96  -5639.3  -5640.41  -6178.02  -6178.72  -6235.5  -6247.92  -6284.95  -6303.57  -6394.26  -6401.07  -7089.69  -7097.56  -7143.67  -7177.86  -7228.14  -7253.34  -8064.08  -8102.89  -8133.04  -8188.67  -9108.51  -9188.63  -10239.3  
