#index kx_value ky_value E0(k)  E1(k)   E2(k) .....
0  0  0   3  -3  0  -16.5891  -52.2206  -52.2206  -75.759  -75.759  -113.684  -145.219  -145.219  -146.769  -146.769  -159.804  -181.251  -187.402  -212.747  -212.747  -252.908  -252.908  -297.581  -300.89  -306.14  -306.14  -309.013  -309.676  -309.676  -362.047  -362.047  -363.509  -363.509  -370.77  -377.202  -429.157  -443.088  -443.088  -468.5  -468.5  -487.4  -524.001  -524.429  -524.429  -525.547  -525.547  -526.404  -579.753  -582.654  -582.654  -587.045  -587.045  -588.587  -635.529  -635.529  -635.905  -636.702  -636.702  -638.754  -733.532  -737.408  -737.408  -745.055  -745.055  -749.028  -807.953  -808.126  -808.126  -808.443  -808.443  -808.59  -861.405  -861.957  -861.957  -863.129  -863.129  -863.756  -932.435  -934.6  -934.6  -939.397  -939.397  -942.268  -960.247  -962.4  -962.4  -965.732  -965.732  -967.155  -1111.86  -1112.45  -1112.45  -1113.65  -1113.65  -1114.25  -1153.96  -1154.02  -1154.02  -1154.15  -1154.15  -1154.21  -1212.02  -1212.19  -1212.19  -1212.54  -1212.54  -1212.71  -1261.72  -1262.01  -1262.02  -1262.6  -1262.6  -1262.9  -1356.96  -1358.21  -1358.22  -1361.49  -1361.49  -1364.67  -1367.62  -1370.59  -1370.59  -1373.46  -1373.47  -1374.52  -1563.66  -1563.69  -1563.7  -1563.75  -1563.81  -1563.83  -1572.27  -1572.29  -1572.29  -1572.31  -1572.31  -1572.32  -1617.38  -1617.44  -1617.45  -1617.58  -1617.6  -1617.66  -1691.74  -1691.88  -1691.9  -1692.19  -1692.22  -1692.36  -1717.23  -1717.36  -1717.38  -1717.64  -1717.67  -1717.79  -1860.52  -1860.8  -1860.82  -1861.41  -1861.43  -1861.75  -1871.88  -1872.17  -1872.18  -1872.73  -1872.74  -1872.99  -2035.88  -2035.88  -2035.96  -2035.96  -2036.97  -2036.97  -2093.72  -2093.73  -2093.76  -2093.77  -2096.79  -2096.79  -2116.73  -2116.79  -2116.8  -2116.88  -2116.92  -2116.97  -2143.37  -2143.42  -2143.49  -2143.54  -2151.52  -2151.52  -2243.42  -2243.6  -2243.65  -2243.83  -2250.14  -2250.22  -2250.55  -2250.76  -2250.8  -2250.93  -2259.74  -2259.74  -2447.33  -2447.4  -2449.81  -2449.88  -2449.91  -2449.94  -2459.15  -2459.21  -2463.8  -2463.82  -2463.96  -2463.98  -2571.83  -2571.83  -2572.74  -2572.74  -2625.17  -2625.17  -2628.67  -2628.67  -2699.57  -2699.59  -2704.27  -2704.27  -2724.8  -2724.81  -2733.95  -2733.95  -2746.17  -2746.21  -2753.41  -2753.45  -2753.49  -2753.49  -2873.95  -2874.03  -2875.09  -2875.17  -2880.29  -2880.29  -2881.9  -2881.9  -3120.68  -3120.69  -3131.88  -3131.89  -3134.64  -3134.64  -3137.28  -3137.28  -3170.05  -3170.05  -3227.77  -3227.79  -3277.12  -3277.15  -3377.34  -3377.39  -3384.38  -3384.42  -3466.15  -3466.15  -3587.35  -3587.48  -3594.96  -3595.09  -3832.1  -3832.12  -3885.27  -3885.32  -3886.62  -3886.64  -3959.66  -3959.69  -3984.8  -3984.85  -4133.92  -4135.05  -4142.53  -4143.64  -4391.47  -4391.48  -4556.39  -4556.44  -4614.03  -4614.08  -4663.27  -4663.61  -4763.53  -4770.53  -4773.44  -4780.22  -4980.77  -4980.9  -5344.53  -5344.56  -5397.63  -5398.7  -5471.97  -5483.53  -5497.06  -5508.66  -5654.5  -5655.61  -6194.9  -6195.59  -6252.48  -6264.87  -6301.93  -6320.49  -6411.53  -6418.31  -7109.07  -7116.93  -7163.11  -7197.23  -7247.72  -7272.86  -8086.12  -8124.89  -8155.16  -8210.76  -9133.39  -9213.5  -10267.1  
1  0  0.0143794   2.73205  -2.73205  -0.507128  -15.3676  -51.6411  -53.6771  -75.8132  -77.6419  -113.538  -133.615  -136.154  -150.037  -156.019  -168.62  -182.278  -185.54  -211.416  -217.93  -252.794  -256.257  -277.242  -291.074  -292.86  -301.549  -321.387  -323.016  -338.627  -338.733  -348.746  -356.68  -378.442  -385.638  -397.794  -411.774  -434.116  -452.827  -463.604  -480.672  -484.157  -504.138  -504.361  -506.167  -543.623  -546.151  -546.231  -563.702  -563.76  -567.732  -596.299  -604.298  -604.978  -618.192  -618.945  -627.171  -659.189  -659.788  -678.809  -697.443  -705.111  -742.345  -742.559  -756.775  -779.534  -782.256  -782.278  -787.155  -811.126  -834.612  -834.627  -837.131  -837.221  -861.558  -885.351  -889.388  -889.403  -905.251  -907.519  -913.998  -915.744  -943.754  -943.788  -959.761  -959.888  -988.484  -996.172  -998.85  -1017.33  -1061.39  -1062.56  -1092.04  -1113.89  -1113.89  -1122.99  -1122.99  -1150.35  -1165.34  -1166.54  -1180.48  -1180.49  -1185.85  -1185.86  -1200.35  -1217.9  -1233.27  -1233.29  -1243.39  -1243.39  -1276.14  -1296.12  -1296.13  -1298.79  -1305.27  -1316.86  -1317.69  -1326.05  -1354.77  -1354.78  -1379.23  -1379.23  -1415.9  -1417.1  -1428.8  -1434.89  -1491.13  -1510.34  -1510.37  -1527.22  -1527.31  -1544.97  -1572.94  -1572.95  -1581.7  -1581.74  -1600.69  -1600.69  -1619.49  -1635.59  -1635.89  -1638.43  -1644.96  -1650.69  -1650.75  -1655.01  -1655.01  -1687.91  -1687.97  -1691.85  -1724.11  -1724.11  -1761.3  -1761.32  -1766.41  -1791.37  -1791.83  -1792.38  -1807.44  -1807.61  -1855.44  -1855.5  -1879.93  -1879.94  -1927.71  -1927.91  -1943.07  -1944.03  -1952.84  -1994.15  -1995.24  -2010.67  -2044.13  -2044.3  -2051.44  -2054.68  -2060.48  -2078.16  -2078.24  -2103.68  -2111.44  -2117.77  -2118.02  -2121.83  -2135.35  -2135.39  -2160.59  -2167.69  -2181.53  -2185.94  -2187.41  -2187.48  -2191.44  -2191.58  -2193.93  -2226.5  -2234.47  -2236.18  -2269.9  -2269.95  -2310.44  -2310.51  -2334.94  -2344.37  -2367.61  -2368.44  -2383.47  -2390  -2441.94  -2448.54  -2466.39  -2467.08  -2479.12  -2524.74  -2525.58  -2525.62  -2535.11  -2546.92  -2547.11  -2578.67  -2610.75  -2619.25  -2620.16  -2640.55  -2647.63  -2663.12  -2670.46  -2673.17  -2676.55  -2684.74  -2742.1  -2746.29  -2748.34  -2754.51  -2779.23  -2786.81  -2787.54  -2788.44  -2802.36  -2838.02  -2838.07  -2854.1  -2896.88  -2903.39  -2948.63  -2955.02  -3032.88  -3043.85  -3045.98  -3113.44  -3117.82  -3143.53  -3143.58  -3174.81  -3216.45  -3221.78  -3222.84  -3227.04  -3279.84  -3309.15  -3332.06  -3349.66  -3372.74  -3414.2  -3454.7  -3466.87  -3504.49  -3567.17  -3617.34  -3679.48  -3774.5  -3793.23  -3828.28  -3876.8  -3890.05  -3897.22  -3934.21  -3943.83  -4012.77  -4049.76  -4051.8  -4103.49  -4176.21  -4227.3  -4298.16  -4371.08  -4493.65  -4550.56  -4602.68  -4619.73  -4676.66  -4684.81  -4725.31  -4729.09  -4820.96  -4860.75  -4887.67  -4949.81  -5276.42  -5330.13  -5399.02  -5413  -5435.97  -5467.9  -5547.3  -5562.18  -5583.79  -5613.28  -6121.65  -6178.53  -6230.88  -6269.53  -6322.55  -6338.32  -6362.34  -6396.26  -7030.47  -7085.28  -7164.48  -7196.23  -7200.97  -7277.2  -8002.51  -8071.09  -8129.01  -8209.77  -9044.65  -9125.45  -10173.5  
2  0  0.0287588   2  -2  -1.95548  -12.4778  -50.2766  -57.3269  -75.3515  -82.9989  -111.102  -124.759  -127.03  -149.397  -163.545  -176.075  -181.07  -197.286  -209.932  -226.083  -248.941  -253.287  -268.853  -276.653  -278.583  -304.22  -321.393  -333.258  -338.551  -339.645  -348.166  -372.008  -387.491  -398.246  -401.517  -414.629  -430.74  -445.134  -460.182  -466.181  -484.254  -484.654  -505.285  -508.843  -535.353  -541.907  -542.433  -558.14  -567.881  -568.032  -603.523  -604.379  -612.111  -625.209  -625.596  -660.464  -668.139  -670.643  -686.84  -686.959  -707.05  -722.806  -745.985  -746.121  -756.782  -756.832  -761.575  -812.8  -813.004  -823.083  -830.665  -836.41  -861.377  -861.394  -862.163  -873.984  -874.59  -916.504  -917.332  -917.425  -933.253  -933.264  -970.625  -978.355  -978.444  -1012.21  -1013.32  -1031.8  -1035.29  -1037.18  -1047.64  -1071.95  -1090.09  -1092.09  -1092.1  -1116.92  -1116.92  -1140.13  -1148.29  -1148.32  -1208.39  -1208.41  -1217.66  -1217.78  -1220.52  -1221.59  -1239.37  -1246.47  -1268.42  -1268.64  -1274.03  -1274.03  -1283.49  -1333.96  -1333.97  -1341.69  -1346.89  -1346.9  -1391.53  -1393.78  -1393.79  -1420.28  -1450.24  -1450.27  -1471.43  -1471.91  -1474.23  -1490.98  -1491.08  -1492.97  -1499.77  -1546.68  -1546.72  -1548.73  -1574.22  -1575.89  -1575.9  -1606.8  -1606.86  -1637.95  -1637.95  -1666.09  -1666.15  -1693.46  -1693.46  -1701.43  -1701.58  -1714.39  -1721.59  -1722.72  -1746.71  -1746.78  -1753.61  -1753.61  -1767.92  -1812.87  -1812.88  -1842.46  -1847.99  -1848.04  -1867.87  -1871.46  -1892.95  -1892.95  -1929.32  -1952.94  -1954  -1973.19  -1973.65  -1979.46  -1994.06  -1994.15  -2008.55  -2012.14  -2018.05  -2019.13  -2068.35  -2075.7  -2079.29  -2086.39  -2120.27  -2120.35  -2121.03  -2121.1  -2127.62  -2136.32  -2176.49  -2176.53  -2207.38  -2208.44  -2215.16  -2236.26  -2236.33  -2266.54  -2267.15  -2268.85  -2287.39  -2287.76  -2295.51  -2295.57  -2311.77  -2318.89  -2322.61  -2375.24  -2375.3  -2387.24  -2421.4  -2430.77  -2434.65  -2441.84  -2443.3  -2477.99  -2479.04  -2479.22  -2518.98  -2533.45  -2548.9  -2581.7  -2589.2  -2593.27  -2602.15  -2602.18  -2632.74  -2632.94  -2652.36  -2667.02  -2667.96  -2695.11  -2696.75  -2722.44  -2725.57  -2732.07  -2749.54  -2757.21  -2782.22  -2788.55  -2835.5  -2841.33  -2848.78  -2921.06  -2924.39  -2924.43  -2927.66  -2943.37  -2952.19  -2962.55  -3024.48  -3030.75  -3066.1  -3106.05  -3121.46  -3156.22  -3156.96  -3181.15  -3240.28  -3276.15  -3281.09  -3302.79  -3308.06  -3319.96  -3331.51  -3391.17  -3423.35  -3450.33  -3469.32  -3530  -3548.74  -3641.46  -3701.61  -3717.25  -3765.72  -3772.55  -3832.19  -3868.75  -3891.34  -3948.33  -3971.01  -4003.62  -4063.29  -4074.31  -4122.4  -4206.62  -4211.24  -4313.34  -4352.45  -4431.43  -4486.7  -4546.29  -4605.43  -4683.54  -4685.09  -4738.91  -4796.31  -4798.9  -4867.81  -4920.57  -4946.21  -5208.66  -5263.89  -5323.5  -5382.59  -5471.21  -5481.83  -5538.83  -5573.32  -5608.39  -5666.49  -6048.93  -6104.23  -6164.17  -6232.88  -6311.29  -6344.3  -6411.97  -6476.25  -6952.25  -7009.16  -7078.56  -7136.66  -7276.61  -7359.59  -7919.73  -7987.22  -8051.48  -8296.4  -8956.99  -9039.82  -10081.6  
3  0  0.0431382   1  -1  -4.1053  -9.23044  -48.9237  -62.1631  -72.8672  -90.3211  -106.337  -119.595  -121.225  -150.807  -160.193  -182.038  -191.356  -200.096  -220.057  -224.183  -239.717  -253.7  -260.654  -264.627  -286.692  -290.126  -322.293  -322.514  -346.985  -354.806  -356.101  -370.577  -396.59  -406.647  -408.183  -415.525  -418.949  -461.874  -463.978  -465.169  -468.962  -472.367  -475.843  -520.314  -520.836  -523.181  -541.769  -568.441  -588.71  -589.526  -593.12  -594.248  -627.192  -634.389  -645.741  -645.87  -658.469  -659.144  -712.479  -713.66  -716.361  -720.404  -731.093  -731.138  -753.887  -754.074  -768.668  -786.251  -789.358  -791.95  -815.311  -843.015  -843.191  -868.625  -876.095  -888.583  -888.673  -924.789  -924.807  -946.732  -946.746  -965.047  -965.794  -973.414  -973.617  -999.609  -999.612  -1027.41  -1031.64  -1061.86  -1061.87  -1080.51  -1081.46  -1081.72  -1103.23  -1115.74  -1115.75  -1122.62  -1122.64  -1128.47  -1180.42  -1184.84  -1186.86  -1189.73  -1223.65  -1223.72  -1250.74  -1250.74  -1276.62  -1277.82  -1305.23  -1305.24  -1340.24  -1340.25  -1350.83  -1351.18  -1374.67  -1374.67  -1391.79  -1392  -1405.37  -1408.98  -1411.96  -1411.97  -1455.2  -1455.3  -1458.79  -1479.7  -1505.22  -1512.57  -1512.61  -1528.12  -1528.4  -1559.76  -1565.07  -1565.13  -1566.75  -1580.5  -1580.51  -1647.52  -1647.58  -1653.09  -1654.23  -1675.66  -1675.66  -1688.53  -1688.59  -1732.92  -1732.92  -1768.41  -1768.55  -1785.54  -1785.54  -1791.84  -1792.24  -1841.91  -1841.96  -1845.75  -1849.73  -1867.73  -1867.74  -1898.91  -1904.68  -1905.21  -1908.39  -1908.39  -1912.19  -1913.23  -1920.27  -1945.67  -1966.29  -1970.18  -1999.74  -2006.84  -2035.37  -2041.74  -2061.59  -2061.64  -2072.51  -2082.23  -2095.41  -2096.53  -2124.71  -2124.81  -2164.19  -2164.28  -2190.31  -2197.99  -2208.29  -2208.52  -2218.21  -2218.25  -2242.5  -2249.91  -2287.25  -2287.31  -2296.81  -2297.12  -2324.36  -2324.43  -2344.85  -2344.92  -2353.25  -2356.61  -2410.8  -2428.68  -2428.96  -2431.7  -2436.08  -2442.04  -2442.1  -2459  -2488.77  -2493.95  -2494.03  -2502.23  -2509.61  -2509.71  -2518.94  -2541.13  -2605.17  -2606.82  -2623.24  -2663.77  -2680.19  -2680.22  -2715.24  -2716.19  -2720.62  -2720.83  -2753.84  -2761.8  -2772.31  -2775.12  -2818.76  -2824.59  -2831.44  -2854.25  -2862.29  -2882.27  -2906.69  -2913.54  -2947.25  -2954.02  -3012.51  -3012.55  -3014.82  -3068.68  -3100.09  -3102.13  -3108.31  -3137.66  -3170.97  -3172.18  -3174.64  -3191.22  -3292.25  -3329.9  -3344.02  -3383.73  -3390.9  -3396.12  -3452.69  -3473.47  -3489.72  -3532.15  -3607.29  -3611.76  -3660.44  -3667.4  -3717.39  -3769.57  -3851.63  -3853.74  -3862.54  -3892.21  -4007.05  -4046.94  -4063.98  -4116.22  -4116.88  -4198.32  -4248.23  -4335.6  -4369.66  -4401.2  -4423.41  -4492.31  -4529.3  -4646.87  -4706.76  -4747.79  -4801.78  -4871.66  -4893.11  -4917.38  -5033.68  -5141.35  -5198.23  -5250.4  -5332.5  -5382.21  -5535.18  -5551.15  -5610.99  -5671.39  -5752.56  -5976.64  -6030.57  -6100.4  -6145.96  -6262.25  -6419.86  -6486.47  -6559.86  -6874.52  -6934.28  -6994.56  -7075.71  -7358.13  -7444.35  -7837.74  -7904.21  -7977.57  -8384.78  -8870.47  -8956.56  -9991.46  
4  0  0.0575175   0  -0  -6.49882  -6.49882  -48.3451  -67.7652  -67.7652  -94.5063  -104.458  -118.042  -118.042  -154.721  -154.721  -189.977  -197.955  -201.708  -201.708  -246.581  -246.581  -248.604  -248.604  -252.792  -283.257  -300.069  -316.607  -316.607  -358.147  -358.147  -371.972  -371.972  -372.277  -389.038  -429.258  -434.932  -434.932  -445.589  -445.589  -446.013  -484.297  -484.297  -492.799  -501.173  -501.173  -503.035  -573.931  -579.412  -579.412  -602.73  -602.73  -609.653  -612.856  -613.477  -613.477  -667.575  -667.575  -667.759  -706.364  -706.364  -706.451  -741.457  -742.948  -742.948  -763.628  -763.628  -766.133  -770.111  -771.175  -771.175  -816.298  -816.298  -816.446  -914.465  -914.465  -915.567  -915.643  -918.062  -918.062  -923.7  -923.7  -925.048  -974.931  -974.961  -974.961  -1025.06  -1025.06  -1025.09  -1031.98  -1032  -1032  -1085.85  -1085.85  -1085.88  -1124.31  -1124.8  -1124.8  -1131.77  -1131.77  -1132.32  -1161.3  -1161.4  -1161.4  -1186.79  -1186.8  -1186.82  -1283.83  -1283.83  -1283.83  -1333.79  -1333.79  -1334.49  -1334.93  -1335.89  -1335.89  -1339.25  -1339.25  -1339.52  -1412.45  -1412.45  -1412.45  -1419.93  -1419.93  -1420.03  -1437.98  -1437.99  -1438  -1478.04  -1478.04  -1478.08  -1527.79  -1527.8  -1527.85  -1585.89  -1586.03  -1586.04  -1587.11  -1587.12  -1587.26  -1628.54  -1628.55  -1628.6  -1635.59  -1635.6  -1635.65  -1713.88  -1713.88  -1713.97  -1771.85  -1771.85  -1771.89  -1821.34  -1821.35  -1821.41  -1837.42  -1837.51  -1837.52  -1837.71  -1837.71  -1837.8  -1871.77  -1871.86  -1872.81  -1921.89  -1921.9  -1921.95  -1925.3  -1925.34  -1928.97  -1929  -1929.05  -1929.37  -1999.79  -1999.85  -2005.26  -2025.16  -2025.23  -2035.9  -2130.65  -2130.69  -2130.73  -2130.79  -2130.88  -2130.93  -2174.69  -2174.75  -2175.83  -2175.88  -2182.03  -2183.73  -2207.79  -2207.87  -2208.75  -2261.2  -2261.24  -2264.95  -2335.66  -2335.71  -2340.71  -2360.96  -2361.03  -2370.86  -2385.91  -2386.93  -2424.34  -2424.38  -2424.42  -2424.43  -2431.92  -2431.98  -2443.76  -2446.63  -2493.22  -2500.75  -2510.22  -2510.23  -2511.36  -2511.37  -2517  -2518.66  -2593.44  -2599.59  -2600.51  -2608.86  -2759.79  -2759.86  -2759.89  -2763.97  -2764.93  -2766.46  -2768.18  -2774.16  -2803.93  -2804.2  -2810.4  -2810.6  -2821.75  -2824.42  -2871.16  -2878.17  -2963.9  -2971.39  -2977.08  -2978.44  -2986.17  -3017.17  -3091.48  -3095.85  -3102.39  -3102.43  -3103.04  -3116.84  -3181.59  -3187.54  -3187.75  -3189.19  -3265.9  -3267.04  -3384  -3437.23  -3479.18  -3480.77  -3485.96  -3511.64  -3517.54  -3523.68  -3536.81  -3604.15  -3661.84  -3686.43  -3695.21  -3711.14  -3811.38  -3818.4  -3857.98  -3943.55  -4021.37  -4028.92  -4066.29  -4123.95  -4173.38  -4275.88  -4287.93  -4308.23  -4320.52  -4361.39  -4435.75  -4460.87  -4490.86  -4610.5  -4619.08  -4812.4  -4866.04  -4867.43  -4944.45  -4972.05  -5074.56  -5123.04  -5132.17  -5181.53  -5284.03  -5295.92  -5498.85  -5621.08  -5683.64  -5737.88  -5841.04  -5904.7  -5958.29  -6036.63  -6064.15  -6215.11  -6496.18  -6562.45  -6646.48  -6797.4  -6859.89  -6914.05  -7017.17  -7440.85  -7531.41  -7756.51  -7822.66  -7906.67  -8474.92  -8785.15  -8875.61  -9903.08  
5  0.0124529  0.0503278   0.732051  -0.732051  -4.72771  -8.44471  -48.9494  -62.0561  -73.7455  -91.162  -105.768  -114.265  -125.162  -151.935  -158.613  -177.144  -198.942  -207.317  -211.575  -233.431  -235.13  -241.094  -259.302  -275.371  -288.273  -290.701  -307.274  -333.074  -338.728  -354.715  -360.647  -389.21  -389.505  -400.733  -401.035  -426.087  -426.338  -449.093  -449.84  -456.785  -482.967  -484.054  -484.379  -503.161  -509.543  -540.444  -551.109  -558.188  -568.697  -592.545  -594.516  -616.555  -623.413  -635.009  -635.779  -644.146  -682.051  -682.213  -690.917  -691.045  -698.825  -725.152  -740.494  -740.852  -756.005  -760.9  -761.293  -794.316  -794.448  -797.668  -799.548  -815.924  -860.814  -865.839  -875.695  -877.488  -917.204  -917.257  -920.092  -944.436  -944.463  -965.675  -970.211  -973.089  -1002.28  -1002.3  -1002.59  -1002.62  -1055.27  -1055.29  -1056.8  -1056.92  -1070.23  -1077.48  -1092.31  -1126.3  -1126.33  -1137.17  -1137.17  -1146.08  -1164.55  -1164.55  -1177.34  -1177.96  -1218.23  -1221.41  -1246.94  -1271.45  -1280.88  -1281.8  -1317.2  -1317.2  -1332.84  -1332.84  -1346.98  -1371.59  -1371.6  -1372.52  -1385.22  -1385.22  -1395.22  -1396.4  -1441  -1441  -1442.65  -1442.65  -1478.3  -1478.31  -1490.89  -1495.22  -1495.22  -1520.72  -1521.89  -1548.9  -1577.73  -1577.74  -1594.24  -1594.25  -1598.62  -1619.01  -1619.01  -1637.76  -1646.58  -1646.75  -1695.77  -1699.24  -1706.33  -1745.36  -1752.65  -1752.74  -1772.07  -1772.24  -1809.87  -1809.91  -1831.64  -1831.73  -1834.86  -1834.86  -1845.88  -1852.99  -1862.43  -1862.5  -1885.82  -1885.86  -1908.21  -1908.34  -1944.64  -1944.7  -1954.16  -1954.92  -1954.98  -1985.27  -1985.33  -1992.07  -1992.14  -2010.6  -2054.77  -2054.9  -2086.48  -2109.95  -2110.01  -2117  -2121.24  -2138.07  -2138.12  -2162.5  -2162.54  -2174.63  -2201.62  -2201.66  -2249.11  -2251.7  -2252.67  -2263.09  -2264.78  -2274.45  -2305.7  -2309.32  -2340.68  -2341.69  -2348.33  -2348.39  -2374.72  -2380.62  -2397.79  -2400.81  -2411.81  -2420.5  -2421.83  -2422.12  -2423.69  -2424.83  -2450.17  -2457.54  -2512.96  -2513.03  -2529.48  -2532.27  -2536.57  -2539.65  -2572.81  -2580.16  -2581.4  -2588.28  -2667.8  -2673.37  -2673.45  -2727.33  -2727.9  -2734.56  -2767.3  -2773.12  -2781.18  -2792.11  -2797.79  -2813.26  -2849.22  -2855.14  -2870.3  -2880.07  -2889.2  -2913.3  -2922.57  -2967.18  -3004.68  -3009.18  -3015.87  -3036.17  -3045.23  -3073.17  -3090.59  -3090.81  -3099.94  -3100.28  -3190.76  -3200.08  -3242.54  -3270.13  -3382.43  -3389.02  -3430.8  -3438.42  -3488.84  -3492.26  -3510.3  -3548.41  -3561.19  -3598.22  -3605.37  -3657.56  -3715.79  -3739.64  -3761.05  -3775.88  -3780.21  -3934.94  -3962.22  -4004.9  -4126.08  -4183  -4223.62  -4235.24  -4247.12  -4300.88  -4317.33  -4367.22  -4369.79  -4406.78  -4520.19  -4524.35  -4584.27  -4770.62  -4877.33  -4931.31  -5001.18  -5008.31  -5046.89  -5065.19  -5117.38  -5163.18  -5199.47  -5249.2  -5402.18  -5691.19  -5751.02  -5811.4  -5833.09  -5887.03  -5892.57  -5956.87  -6002.45  -6118.74  -6570.4  -6636.99  -6710.38  -6720.48  -6780.25  -6840.53  -6921.69  -7519.17  -7605.37  -7673.19  -7739.68  -7813.04  -8556.3  -8695.43  -8781.53  -9805.94  
6  0.0249058  0.0431382   1  -1  -4.11814  -9.20574  -49.7805  -59.2154  -77.5672  -87.5043  -107.606  -111.701  -130.359  -152.313  -160.125  -167.63  -200.492  -216.544  -219.412  -223.441  -225.666  -236.429  -267.15  -282.065  -290.953  -299.611  -306.688  -309.201  -339.637  -359.246  -368.507  -375.664  -406.13  -406.794  -408.659  -408.792  -420.855  -430.134  -463.586  -465.66  -467.985  -469.829  -520.756  -523.17  -528.068  -530.438  -531.206  -534.408  -580.957  -581.064  -590.407  -591.726  -654.997  -655.55  -658.204  -658.85  -659.804  -660.227  -683.352  -683.845  -714.331  -714.487  -716.647  -716.794  -773.573  -773.656  -779.32  -779.418  -807.65  -807.654  -834.871  -835.1  -836.673  -836.872  -867.001  -867.003  -916.154  -916.161  -917.128  -917.133  -973.118  -973.124  -973.306  -973.313  -1016.51  -1016.54  -1023.42  -1023.51  -1029.49  -1030.01  -1030.13  -1030.59  -1089.36  -1089.38  -1090.27  -1090.29  -1144.54  -1144.54  -1153.49  -1153.5  -1154.39  -1154.4  -1207.99  -1207.99  -1228.11  -1228.11  -1228.76  -1228.76  -1283.3  -1283.3  -1308.84  -1308.85  -1331.85  -1331.85  -1350.99  -1350.99  -1351.1  -1351.1  -1406.75  -1406.75  -1406.93  -1406.93  -1456.83  -1456.85  -1457.98  -1458  -1466.88  -1466.91  -1467.43  -1467.46  -1526.34  -1526.35  -1526.41  -1526.41  -1563.4  -1563.49  -1600.18  -1600.18  -1611.04  -1611.04  -1621.44  -1621.47  -1671.09  -1671.15  -1708.43  -1708.44  -1708.59  -1708.6  -1771.64  -1771.7  -1778.74  -1778.8  -1791.94  -1791.94  -1792.03  -1792.03  -1833.78  -1833.78  -1847.58  -1847.58  -1847.78  -1847.78  -1907.45  -1907.45  -1907.54  -1907.54  -1966.47  -1966.47  -1967  -1967  -1980.61  -1980.66  -1980.74  -1980.79  -2036.36  -2037.27  -2046.59  -2046.6  -2046.65  -2046.66  -2089.78  -2093.63  -2143.61  -2143.61  -2155.2  -2155.2  -2164.27  -2169.46  -2189.62  -2199.85  -2274.05  -2274.11  -2274.13  -2274.17  -2295.97  -2295.97  -2296.97  -2296.97  -2338.92  -2340.06  -2345.94  -2347.62  -2351.46  -2351.46  -2354.81  -2354.81  -2411.13  -2411.13  -2417.66  -2417.67  -2421.44  -2421.44  -2470.42  -2470.43  -2478.45  -2478.46  -2550.13  -2550.13  -2557.31  -2557.31  -2572.43  -2588.65  -2588.71  -2595.75  -2595.83  -2632.01  -2653.67  -2653.81  -2660.47  -2660.55  -2685.94  -2774.7  -2774.7  -2784.82  -2788.68  -2788.68  -2794  -2863.06  -2863.06  -2918.44  -2918.44  -2924.36  -2931.05  -2932.06  -2937.91  -2978.16  -2978.18  -2995.43  -2995.65  -3037.3  -3037.3  -3099.22  -3099.22  -3116.98  -3117.03  -3220.4  -3220.4  -3287.36  -3293.84  -3345.92  -3352.86  -3493.2  -3493.2  -3498.69  -3498.69  -3548.52  -3548.53  -3608.17  -3608.18  -3665.5  -3667.34  -3667.65  -3747  -3747  -3850.31  -3858.41  -3982.66  -3982.66  -4128.49  -4186.37  -4186.39  -4241.65  -4241.67  -4301.25  -4301.32  -4360.4  -4360.42  -4440.06  -4449.21  -4551.32  -4551.32  -4675.58  -4942.59  -4942.61  -4997.83  -4997.96  -5057.45  -5057.95  -5116.54  -5126.81  -5205.2  -5205.22  -5307.31  -5761.84  -5761.91  -5817.16  -5818.89  -5877.11  -5888.41  -5945.86  -5946.51  -6024.27  -6644.16  -6645.38  -6701.09  -6713.01  -6770.52  -6777.29  -6828.61  -7590.64  -7598.68  -7658.16  -7681.63  -7722.43  -8606.91  -8639.43  -8689.77  -9710.55  
7  0.0207549  0.0359485   1.23931  -1.23931  -3.57817  -9.93524  -49.9181  -58.7803  -77.3177  -86.3621  -108.434  -113.473  -130.239  -152.262  -160.049  -168.598  -198.207  -211.749  -212.158  -225.856  -233.532  -241.731  -264.314  -278.218  -294.232  -304.251  -306.903  -309.476  -335.327  -363.906  -368.034  -376.532  -388.959  -391.118  -419.864  -426.191  -426.449  -432.004  -446.968  -450.703  -482.956  -487.598  -511.119  -516.108  -525.67  -525.944  -543.945  -546.89  -569.104  -581.197  -581.339  -613.973  -634.758  -635.46  -654.167  -654.542  -681.497  -682.168  -687.104  -687.624  -691.766  -694.247  -737.705  -739.766  -748.492  -753.671  -799.452  -805.611  -807.547  -807.615  -818.338  -818.67  -853.898  -853.966  -866.94  -866.945  -885.547  -918.119  -918.123  -944.546  -944.751  -947.414  -999.265  -999.919  -1002.13  -1002.3  -1007.79  -1007.87  -1034.7  -1034.72  -1058.86  -1059.46  -1063.28  -1064.37  -1111.09  -1116.12  -1116.9  -1119.66  -1154.37  -1154.37  -1178.78  -1188.04  -1206.05  -1206.05  -1210.01  -1210.01  -1249.61  -1249.62  -1280.87  -1280.88  -1293.89  -1312.22  -1312.23  -1317.05  -1317.15  -1370.4  -1373.4  -1373.6  -1385.38  -1385.49  -1430.28  -1430.83  -1440.54  -1440.7  -1440.84  -1440.86  -1475.21  -1475.22  -1498  -1498.07  -1503.57  -1504.11  -1555.44  -1555.51  -1558.83  -1563.43  -1563.52  -1569.59  -1621.13  -1621.16  -1642.16  -1653.1  -1672  -1672.06  -1684.46  -1684.46  -1733.2  -1733.22  -1752.84  -1752.93  -1761.73  -1761.79  -1788.74  -1789.42  -1789.47  -1807.93  -1808.1  -1831.49  -1831.57  -1870.86  -1870.96  -1879.36  -1887.68  -1887.97  -1922.22  -1922.74  -1944.71  -1944.8  -1960  -1960.04  -2001.88  -2001.94  -2011.51  -2012.04  -2015.3  -2015.35  -2036.33  -2037.25  -2078.53  -2078.6  -2090.02  -2093.83  -2095.05  -2106.6  -2161.81  -2167.52  -2192.76  -2192.98  -2202.71  -2204.39  -2246.46  -2246.49  -2251.51  -2252.53  -2302.25  -2302.38  -2307.59  -2310.86  -2322.5  -2329.84  -2340.87  -2341.85  -2357.14  -2364.29  -2364.38  -2368.59  -2372.12  -2395.79  -2399.2  -2431.48  -2439.38  -2458.55  -2464.96  -2473.87  -2498.17  -2505.5  -2510.1  -2518.29  -2564.49  -2571.47  -2572.45  -2602.69  -2609.75  -2613.44  -2619.16  -2620.65  -2625.83  -2631.77  -2686.83  -2688.98  -2695.8  -2719.09  -2733.08  -2775.86  -2803.73  -2813.45  -2830.89  -2844.88  -2868.28  -2900.01  -2900.8  -2913.11  -2931.09  -2956.05  -2969.08  -2969.66  -2974.95  -2982.5  -3016.73  -3025.93  -3040.12  -3075.12  -3092.83  -3158.91  -3159.51  -3161.29  -3266.26  -3280.1  -3314.56  -3315.73  -3384.66  -3436.09  -3438.23  -3494.15  -3548.6  -3550.96  -3561.88  -3603.35  -3617.87  -3666.07  -3684.53  -3701.15  -3717.54  -3810.08  -3813.03  -3896.2  -3916.59  -4049.33  -4126.27  -4170.86  -4180.98  -4243.7  -4246.93  -4295.11  -4302.79  -4359.54  -4396.69  -4426.44  -4481.8  -4493.1  -4621.43  -4724.98  -4877.14  -4933.04  -4990.12  -5008.5  -5063.17  -5066.8  -5125.85  -5132.36  -5177.24  -5278.67  -5363.79  -5691.27  -5747.43  -5820.31  -5832.91  -5870.83  -5888.77  -5945.8  -6022.35  -6087.91  -6569.21  -6637.26  -6699.04  -6720.56  -6776.67  -6849.43  -6899.95  -7517.11  -7599.25  -7672.02  -7739.93  -7801.7  -8552.21  -8693.38  -8775.41  -9801.85  
8  0.0166039  0.0287588   1.73205  -1.73205  -2.51282  -11.536  -50.3089  -57.5622  -76.771  -83.7125  -110.419  -118.023  -130.328  -152.111  -159.536  -171.455  -190.726  -202.592  -209.445  -225.534  -245.483  -252.727  -259.29  -271.737  -299.939  -306.573  -310.176  -314.27  -329.604  -365.632  -368.179  -373.12  -374.356  -382.521  -421.992  -431.332  -432.409  -434.709  -444.501  -446.369  -497.052  -500.601  -504.757  -506.828  -525.416  -525.52  -547.81  -560.734  -562.586  -581.892  -582.065  -611.881  -612.651  -637.619  -648.983  -649.521  -669.221  -672.076  -693.992  -694.651  -706.924  -707.356  -724.171  -728.69  -761.501  -763.335  -800.667  -801.107  -808.352  -808.385  -825.977  -832.549  -855.592  -864.845  -864.872  -874.342  -874.455  -916.388  -916.61  -920.981  -920.986  -971.082  -971.866  -979.3  -995.347  -995.378  -1031.55  -1031.71  -1037.73  -1039.1  -1049.02  -1049.04  -1078.54  -1086.6  -1088.78  -1089.32  -1143.6  -1144.3  -1154.28  -1154.29  -1187.3  -1187.3  -1209.37  -1209.38  -1213.75  -1223.26  -1256.52  -1270.9  -1270.92  -1276.37  -1276.38  -1283.55  -1283.65  -1320.12  -1320.13  -1340.47  -1340.69  -1395.01  -1395.58  -1409.54  -1420.2  -1420.32  -1424.29  -1424.29  -1470.37  -1470.47  -1474.79  -1474.94  -1493.5  -1493.51  -1518.1  -1528.74  -1540.95  -1541.48  -1563.49  -1563.59  -1585.36  -1585.44  -1620.31  -1620.35  -1660.64  -1660.64  -1675.09  -1675.15  -1684.74  -1695.77  -1714.17  -1714.26  -1744.27  -1749.73  -1749.79  -1758.51  -1758.52  -1768.77  -1768.92  -1803.69  -1803.74  -1834.85  -1834.96  -1871.47  -1871.56  -1878.77  -1879.27  -1925.24  -1928.21  -1928.87  -1939.88  -1939.92  -1982.71  -1982.8  -1984.65  -1984.7  -2023.72  -2023.78  -2036.26  -2037.2  -2047.09  -2057.18  -2057.72  -2058.58  -2090.7  -2094.38  -2111.1  -2111.17  -2156.73  -2163.24  -2200.8  -2207.49  -2208.52  -2209.77  -2219.4  -2219.45  -2242.5  -2254.17  -2264.14  -2267.34  -2306.17  -2313.6  -2316.55  -2319.11  -2326.16  -2330.99  -2331.15  -2375.44  -2382.6  -2386.21  -2387.16  -2393.22  -2401  -2440.6  -2444.06  -2446.84  -2454.31  -2506.52  -2512.6  -2527.09  -2540.83  -2547.69  -2550.59  -2558.98  -2572.51  -2585.19  -2591.81  -2631.08  -2638.84  -2646.05  -2655.86  -2662.81  -2664.07  -2678.07  -2689.4  -2724.88  -2731.65  -2764.27  -2764.32  -2817.61  -2818.59  -2869.54  -2870.1  -2884.59  -2887.68  -2901.66  -2928.51  -2954.94  -2963.61  -2981.61  -2988.31  -3002  -3020.13  -3033.81  -3038.62  -3074.46  -3102.77  -3149.05  -3202.64  -3219.19  -3239.27  -3276.85  -3340.38  -3344.67  -3374.07  -3383.7  -3424.01  -3440.19  -3494.48  -3569.09  -3604.45  -3622.67  -3625.65  -3658.67  -3724.55  -3737.08  -3768.25  -3768.52  -3851.1  -3873.76  -3942.67  -4066.58  -4116.58  -4120.79  -4186.66  -4213.81  -4230.6  -4307.93  -4344.77  -4364.35  -4412.87  -4418.57  -4493.17  -4546.75  -4692.13  -4774.98  -4812.11  -4868.55  -4923.07  -5007.44  -5060.11  -5074.85  -5129  -5194.83  -5238.75  -5352.75  -5420.86  -5621.06  -5676.52  -5752.74  -5795.97  -5904.41  -5960.81  -6015.28  -6099.51  -6152.18  -6493.53  -6561.96  -6621.61  -6797.4  -6852.79  -6928.87  -6972.1  -7436.06  -7517.53  -7753.88  -7822.16  -7881.8  -8465.58  -8780.36  -8861.71  -9893.74  
9  0.0124529  0.0215691   2.23607  -2.23607  -1.47822  -13.3486  -50.8835  -55.8407  -76.2625  -80.7281  -112.385  -124.213  -131.693  -151.85  -158.164  -175.785  -181.042  -193.905  -209.913  -223.095  -254.992  -256.372  -265.911  -267.644  -302.948  -306.71  -309.288  -325.477  -330.662  -353.068  -356.489  -367.667  -369.697  -394.191  -411.411  -415.965  -429.921  -439.886  -463.722  -465.301  -483.69  -491.305  -521.178  -524.121  -525.672  -527.045  -528.714  -577.393  -578.816  -583.311  -583.644  -589.472  -590.334  -642.389  -643.554  -648.605  -650.943  -662.3  -700.654  -704.185  -704.469  -704.956  -731.465  -731.879  -784.715  -785.373  -785.812  -787.441  -808.155  -808.165  -826.352  -852.912  -859.505  -864.404  -864.557  -888.688  -888.931  -893.782  -894.233  -925.332  -925.34  -943.063  -943.931  -983.986  -984.028  -1011.81  -1012.59  -1014.4  -1047.05  -1054.42  -1061.02  -1061.12  -1064.51  -1064.58  -1119.13  -1119.61  -1154.14  -1154.14  -1167.93  -1167.94  -1171.88  -1172.53  -1210.27  -1210.27  -1219.76  -1249.39  -1250.49  -1250.59  -1259.08  -1270.33  -1270.34  -1294.19  -1294.23  -1307.92  -1308.16  -1330.2  -1330.21  -1360.45  -1361.02  -1408.42  -1408.43  -1443.45  -1443.58  -1449.24  -1455.45  -1455.62  -1478.04  -1488.53  -1509.04  -1509.16  -1512.89  -1512.92  -1563.59  -1563.69  -1578.78  -1579.29  -1616.23  -1616.32  -1619.24  -1619.27  -1637.78  -1637.78  -1675.93  -1676.02  -1679.32  -1679.38  -1700.38  -1727.93  -1730.12  -1730.27  -1738.61  -1738.66  -1739.03  -1784.25  -1784.27  -1799.25  -1799.38  -1818.86  -1818.91  -1836.27  -1836.75  -1911.9  -1911.99  -1920.28  -1920.32  -1954.7  -1954.74  -1968.72  -1969.11  -1973.14  -1999.71  -2011.16  -2021.51  -2021.61  -2036.15  -2037.11  -2046.16  -2046.21  -2091.68  -2095.17  -2103.51  -2104.05  -2144.32  -2144.39  -2151.5  -2158.64  -2163.91  -2164.96  -2192.89  -2192.92  -2210.74  -2219.2  -2221.07  -2224.21  -2266.04  -2273.59  -2281.19  -2290.5  -2292.83  -2298.04  -2304.54  -2355.6  -2360.22  -2360.45  -2363.27  -2394.44  -2396.13  -2401.51  -2403.8  -2431.97  -2432.91  -2485.93  -2489.43  -2517.69  -2524.35  -2551.97  -2554.91  -2558.46  -2560.6  -2572.58  -2580.92  -2592.03  -2600.66  -2609.64  -2623.64  -2630.24  -2664.75  -2672.03  -2693.31  -2709.63  -2715.52  -2716.47  -2753.56  -2761.4  -2768.11  -2769.42  -2832.42  -2837.99  -2839.65  -2840.52  -2875.46  -2923.68  -2935.54  -2945.05  -2959.02  -2993.11  -3014.54  -3021.08  -3034.93  -3044.84  -3061.18  -3071.55  -3123.79  -3205.91  -3212.88  -3239.73  -3246.41  -3280.05  -3312.64  -3329.61  -3374.17  -3386.61  -3401.26  -3438.81  -3463.97  -3520.95  -3561.45  -3660.72  -3690.02  -3714.51  -3724.06  -3773.58  -3783.46  -3786.2  -3820.45  -3938.05  -3989.74  -4007.32  -4061.1  -4130.04  -4167.03  -4184.42  -4257.34  -4293.45  -4344.54  -4369.37  -4426.29  -4478.41  -4560.54  -4601.04  -4747.52  -4763.42  -4804.44  -4825.56  -4856.86  -4948.71  -4988.5  -5141.63  -5195.34  -5264.24  -5301.2  -5427.42  -5478.52  -5551.29  -5606.18  -5685.56  -5722.04  -5976.36  -6033.24  -6085.59  -6177.28  -6217.08  -6418.32  -6487.09  -6545.02  -6874.67  -6929.49  -7008.71  -7045.19  -7355.51  -7436.47  -7836.22  -7904.81  -7962.73  -8379.53  -8867.85  -8948.67  -9986.21  
10  0.00830194  0.0143794   2.64575  -2.64575  -0.673006  -14.9957  -51.5153  -54.0609  -75.9445  -78.1367  -113.425  -131.353  -135.102  -151.38  -155.551  -171.452  -180.796  -187.047  -211.147  -219.029  -253.217  -256.9  -275.74  -279.564  -301.856  -306.804  -307.4  -335.528  -338.665  -339.2  -341.076  -366.251  -368.817  -395.936  -399.356  -408.046  -435.034  -446.172  -471.654  -480.622  -483.541  -484.95  -510.273  -525.077  -525.215  -541.43  -546.203  -567.242  -568.177  -583.397  -583.516  -597.365  -597.536  -624.568  -628.332  -640.503  -640.619  -678.137  -681.163  -687.299  -715.44  -716.539  -756.565  -756.946  -769.108  -770.118  -797.898  -808.169  -808.189  -810.688  -812.133  -861.372  -861.634  -863.412  -863.433  -880.375  -886.942  -914.513  -915.484  -915.534  -916.443  -930.867  -930.901  -973.613  -973.75  -987.781  -990.239  -1016.93  -1023.31  -1044.93  -1079.58  -1079.59  -1092.04  -1092.19  -1148.75  -1148.76  -1149.83  -1150.27  -1154.37  -1154.37  -1183.6  -1201.01  -1201.63  -1211.28  -1211.28  -1217.88  -1217.99  -1266.09  -1266.1  -1275.71  -1275.98  -1285.65  -1295.44  -1317.08  -1317.22  -1326.73  -1327.31  -1341.68  -1341.69  -1393.09  -1393.11  -1417.22  -1417.48  -1438.72  -1448.97  -1489.3  -1491.13  -1491.59  -1531.48  -1531.49  -1545.21  -1545.35  -1563.69  -1563.79  -1614.8  -1614.8  -1616.81  -1617.28  -1618.86  -1618.89  -1638.12  -1638.22  -1648.26  -1648.39  -1657.09  -1684.52  -1684.58  -1692.01  -1692.15  -1728.68  -1728.73  -1763.83  -1764  -1771.72  -1782.89  -1794.93  -1795.38  -1810.42  -1810.44  -1834.93  -1834.97  -1901.09  -1901.12  -1925.54  -1925.58  -1952.78  -1952.86  -1952.94  -1964.34  -2010.23  -2010.37  -2020.29  -2036.06  -2037.04  -2061.08  -2061.18  -2069.24  -2069.29  -2092.72  -2096.01  -2120.78  -2121.85  -2147.16  -2150.42  -2150.95  -2154.71  -2166.98  -2167.07  -2178.23  -2178.3  -2178.37  -2181.45  -2215.76  -2221.87  -2229.25  -2229.91  -2237.09  -2275.52  -2283.22  -2318.56  -2326.07  -2343.76  -2346.11  -2354.03  -2355.5  -2389.82  -2390.2  -2414.28  -2421.17  -2478.17  -2479.09  -2495.02  -2501.16  -2519.78  -2525.82  -2531.79  -2535.31  -2555.79  -2569.8  -2572.66  -2603.49  -2608.75  -2629.44  -2634.34  -2635.62  -2643.56  -2667.2  -2691.16  -2698.09  -2698.59  -2720.78  -2744.12  -2763.99  -2770.73  -2792.46  -2798.52  -2805.19  -2810.33  -2810.63  -2823.58  -2847.97  -2866.34  -2916.78  -2953  -2987.51  -3003.01  -3016.98  -3054.29  -3065.93  -3068.46  -3084.48  -3123.32  -3173.99  -3187.08  -3203.19  -3251.8  -3263.34  -3275.98  -3290.87  -3333.37  -3341.5  -3384.01  -3404.25  -3462.72  -3473.38  -3500.91  -3504.52  -3680.46  -3717.42  -3721.88  -3754.96  -3770.88  -3810.68  -3842.55  -3873.55  -3948.5  -4001.96  -4002.92  -4037.4  -4073.61  -4104.61  -4242.72  -4252.85  -4276.8  -4301.47  -4431.26  -4488.57  -4539.12  -4628.49  -4656.01  -4683.38  -4740.68  -4791.52  -4835.3  -4876.73  -4890.55  -4917.57  -5208.84  -5262.22  -5333.84  -5364.8  -5481.95  -5502.7  -5536.42  -5536.77  -5618.55  -5649.27  -6048.76  -6106.01  -6156.78  -6255.63  -6282.65  -6343.59  -6412.63  -6469.29  -6952.38  -7006.77  -7088.71  -7119.44  -7275.47  -7356.06  -7919.03  -7987.88  -8044.52  -8294.06  -8955.86  -9036.29  -10079.3  
11  0.00415097  0.00718969   2.90931  -2.90931  -0.170339  -16.1634  -52.0232  -52.7203  -75.7981  -76.382  -113.676  -138.919  -140.173  -150.128  -151.434  -163.346  -182.663  -185.406  -212.286  -214.747  -252.867  -254.048  -289.377  -293.848  -298.914  -306.835  -307.096  -321.032  -324.334  -350.919  -351.387  -365.361  -367.585  -381.041  -385.022  -420.977  -440.409  -447.876  -466.073  -472.189  -495.126  -503.747  -505.075  -525.052  -525.123  -545.65  -546.704  -561.517  -566.199  -584.32  -584.372  -603.632  -607.648  -616.174  -616.673  -637.447  -637.573  -656.52  -658.757  -712.492  -727.524  -729.476  -753.825  -755.705  -770.676  -782.126  -782.474  -808.257  -808.259  -834.547  -834.837  -836.028  -837.332  -862.782  -862.787  -888.457  -889.516  -907.593  -913.481  -933.168  -933.942  -939.644  -941.015  -959.989  -962.578  -968.084  -969.205  -988.636  -993.599  -1078.66  -1096.01  -1096.05  -1122.78  -1122.92  -1130.65  -1130.69  -1148.05  -1154.12  -1154.12  -1180.86  -1181.25  -1185.72  -1185.84  -1212.06  -1212.06  -1231.05  -1231.65  -1243.8  -1244.11  -1263.29  -1263.3  -1293.91  -1294.49  -1322.36  -1331.74  -1340.25  -1340.95  -1354.51  -1354.53  -1378  -1378.05  -1391.52  -1392.42  -1400.76  -1410.19  -1527.05  -1527.23  -1530.88  -1551.57  -1551.58  -1563.77  -1563.87  -1581.02  -1581.15  -1593.39  -1593.39  -1600.76  -1600.86  -1614.39  -1617.77  -1617.8  -1654.45  -1654.59  -1654.67  -1655.07  -1681.81  -1682  -1689.59  -1689.65  -1720.84  -1720.9  -1728.21  -1728.44  -1755.15  -1755.53  -1816.1  -1827.33  -1836.6  -1836.63  -1852.24  -1852.28  -1881.92  -1881.94  -1897.56  -1897.6  -1906.77  -1918.1  -1994.1  -1994.19  -2035.99  -2036.99  -2051.86  -2051.93  -2068.24  -2078.11  -2079.18  -2092.09  -2092.41  -2093.94  -2096.79  -2101.97  -2102.08  -2135.8  -2138.69  -2141.49  -2141.58  -2144.82  -2152.49  -2166.03  -2185.86  -2193.86  -2197.7  -2198.22  -2213.02  -2213.1  -2233.79  -2241.4  -2261.36  -2269.36  -2281.89  -2289.1  -2296.97  -2305.31  -2395.27  -2407.04  -2419.39  -2420.24  -2435.34  -2441.75  -2472.63  -2477.1  -2489.66  -2494.09  -2502.54  -2516.55  -2524.79  -2525.7  -2572.72  -2578.2  -2581.72  -2619.3  -2628.87  -2651.87  -2656.75  -2672.7  -2678.68  -2687.66  -2690.69  -2702.25  -2718.45  -2725.74  -2736.96  -2746.37  -2773.15  -2781.61  -2781.78  -2809.59  -2818.94  -2825.58  -2836.24  -2842.87  -2864.18  -2898.64  -2913.49  -2930.77  -3061.55  -3075.52  -3087.73  -3102.57  -3108.72  -3117.77  -3161.88  -3167.24  -3175.4  -3191.55  -3222.79  -3225.09  -3280.43  -3321.14  -3330.11  -3336.2  -3403.53  -3426.19  -3434.91  -3441.24  -3524.78  -3545.67  -3637.45  -3658.16  -3774.55  -3820.5  -3827.8  -3848.36  -3890.1  -3901.44  -3928.17  -3943.36  -4016.99  -4043.73  -4068.39  -4085.66  -4192.59  -4209.66  -4321.87  -4346.17  -4493.6  -4551.16  -4600.73  -4619.68  -4677.23  -4696.81  -4711.85  -4727.1  -4832.77  -4847.5  -4907.78  -4928.49  -5276.47  -5329.65  -5403.24  -5413.05  -5429.93  -5467.26  -5551.35  -5578  -5578.57  -5595.63  -6121.6  -6179.1  -6228.88  -6269.35  -6334.35  -6338.56  -6349.09  -6394.44  -7030.51  -7084.64  -7168.53  -7195.18  -7195.95  -7276.31  -8002.34  -8071.33  -8127.19  -8209.18  -9044.37  -9124.56  -10172.9  
12  0  0   3  -3  0  -16.5891  -52.2206  -52.2206  -75.759  -75.759  -113.684  -145.219  -145.219  -146.769  -146.769  -159.804  -181.251  -187.402  -212.747  -212.747  -252.908  -252.908  -297.581  -300.89  -306.14  -306.14  -309.013  -309.676  -309.676  -362.047  -362.047  -363.509  -363.509  -370.77  -377.202  -429.157  -443.088  -443.088  -468.5  -468.5  -487.4  -524.001  -524.429  -524.429  -525.547  -525.547  -526.404  -579.753  -582.654  -582.654  -587.045  -587.045  -588.587  -635.529  -635.529  -635.905  -636.702  -636.702  -638.754  -733.532  -737.408  -737.408  -745.055  -745.055  -749.028  -807.953  -808.126  -808.126  -808.443  -808.443  -808.59  -861.405  -861.957  -861.957  -863.129  -863.129  -863.756  -932.435  -934.6  -934.6  -939.397  -939.397  -942.268  -960.247  -962.4  -962.4  -965.732  -965.732  -967.155  -1111.86  -1112.45  -1112.45  -1113.65  -1113.65  -1114.25  -1153.96  -1154.02  -1154.02  -1154.15  -1154.15  -1154.21  -1212.02  -1212.19  -1212.19  -1212.54  -1212.54  -1212.71  -1261.72  -1262.01  -1262.02  -1262.6  -1262.6  -1262.9  -1356.96  -1358.21  -1358.22  -1361.49  -1361.49  -1364.67  -1367.62  -1370.59  -1370.59  -1373.46  -1373.47  -1374.52  -1563.66  -1563.69  -1563.7  -1563.75  -1563.81  -1563.83  -1572.27  -1572.29  -1572.29  -1572.31  -1572.31  -1572.32  -1617.38  -1617.44  -1617.45  -1617.58  -1617.6  -1617.66  -1691.74  -1691.88  -1691.9  -1692.19  -1692.22  -1692.36  -1717.23  -1717.36  -1717.38  -1717.64  -1717.67  -1717.79  -1860.52  -1860.8  -1860.82  -1861.41  -1861.43  -1861.75  -1871.88  -1872.17  -1872.18  -1872.73  -1872.74  -1872.99  -2035.88  -2035.88  -2035.96  -2035.96  -2036.97  -2036.97  -2093.72  -2093.73  -2093.76  -2093.77  -2096.79  -2096.79  -2116.73  -2116.79  -2116.8  -2116.88  -2116.92  -2116.97  -2143.37  -2143.42  -2143.49  -2143.54  -2151.52  -2151.52  -2243.42  -2243.6  -2243.65  -2243.83  -2250.14  -2250.22  -2250.55  -2250.76  -2250.8  -2250.93  -2259.74  -2259.74  -2447.33  -2447.4  -2449.81  -2449.88  -2449.91  -2449.94  -2459.15  -2459.21  -2463.8  -2463.82  -2463.96  -2463.98  -2571.83  -2571.83  -2572.74  -2572.74  -2625.17  -2625.17  -2628.67  -2628.67  -2699.57  -2699.59  -2704.27  -2704.27  -2724.8  -2724.81  -2733.95  -2733.95  -2746.17  -2746.21  -2753.41  -2753.45  -2753.49  -2753.49  -2873.95  -2874.03  -2875.09  -2875.17  -2880.29  -2880.29  -2881.9  -2881.9  -3120.68  -3120.69  -3131.88  -3131.89  -3134.64  -3134.64  -3137.28  -3137.28  -3170.05  -3170.05  -3227.77  -3227.79  -3277.12  -3277.15  -3377.34  -3377.39  -3384.38  -3384.42  -3466.15  -3466.15  -3587.35  -3587.48  -3594.96  -3595.09  -3832.1  -3832.12  -3885.27  -3885.32  -3886.62  -3886.64  -3959.66  -3959.69  -3984.8  -3984.85  -4133.92  -4135.05  -4142.53  -4143.64  -4391.47  -4391.48  -4556.39  -4556.44  -4614.03  -4614.08  -4663.27  -4663.61  -4763.53  -4770.53  -4773.44  -4780.22  -4980.77  -4980.9  -5344.53  -5344.56  -5397.63  -5398.7  -5471.97  -5483.53  -5497.06  -5508.66  -5654.5  -5655.61  -6194.9  -6195.59  -6252.48  -6264.87  -6301.93  -6320.49  -6411.53  -6418.31  -7109.07  -7116.93  -7163.11  -7197.23  -7247.72  -7272.86  -8086.12  -8124.89  -8155.16  -8210.76  -9133.39  -9213.5  -10267.1  
