#index kx_value ky_value E0(k)  E1(k)   E2(k) .....
0  0  0   3  -3  0  -11.1629  -38.4559  -38.456  -54.6846  -54.6846  -84.1999  -103.997  -103.997  -107.265  -107.265  -116.403  -135.044  -137.641  -157.727  -157.727  -191.478  -191.481  -214.83  -221.057  -221.058  -224.673  -225.216  -225.217  -228.306  -267.46  -267.464  -268.16  -268.16  -275.894  -291.721  -315.07  -330.951  -330.96  -358.798  -358.826  -376.42  -376.553  -377.15  -377.196  -379.446  -379.501  -390.716  -418.276  -422.387  -422.392  -427.911  -427.921  -429.6  -472.666  -472.711  -473.957  -474.316  -474.372  -479.377  -537.885  -544.293  -544.312  -556.812  -557.06  -564.545  -579.924  -580.416  -580.611  -581.127  -581.843  -582.011  -622.823  -623.906  -624.084  -625.673  -629.163  -629.773  -676.797  -680.536  -680.893  -685.8  -690.901  -692.574  -710.676  -713.774  -713.819  -716.325  -732.866  -733.066  -811.447  -813.877  -825.159  -825.339  -827.266  -827.976  -828.667  -830.508  -832.775  -834.238  -872.993  -873.254  -876.635  -876.746  -919.458  -921.133  -930.686  -930.856  -986.896  -997.13  -1004.18  -1006.22  -1007.81  -1014.81  -1029.23  -1029.26  -1120.54  -1120.62  -1152.07  -1152.54  -1164.87  -1166.16  -1221.25  -1237.41  -1251.14  -1267.27  -1362.37  -1364.62  -1458.49  -1459.4  -1503.19  -1519.44  -1550.45  -1576.2  -1632.08  -1642.56  -1841.69  -1850.77  -1886.6  -1928.65  -1956.69  -1986.46  -2270.66  -2313.51  -2329.58  -2386.12  -2751.88  -2828.84  -3303.83  
1  0  0.00693362   2.93185  -2.93185  -0.088026  -10.9563  -38.3493  -38.7039  -54.704  -55.0052  -84.1332  -101.005  -101.729  -108.912  -109.566  -118.021  -134.277  -138.22  -157.559  -158.592  -191.437  -191.74  -209.375  -217.027  -217.574  -225.869  -228.03  -229.319  -234.198  -260.799  -262.694  -269.757  -273.122  -280.172  -293.627  -312.106  -330.108  -333.384  -357.448  -360.019  -363.833  -370.964  -371.16  -383.387  -385.762  -389.752  -395.877  -408.271  -417.414  -418.466  -430.677  -432.85  -441.069  -460.125  -466.588  -468.714  -481.095  -482.549  -490.073  -528.44  -539.249  -548.866  -553.342  -561.796  -562.787  -571.205  -572.305  -574.116  -589.947  -590.137  -600.521  -605.703  -615.174  -619.727  -633.734  -633.853  -647.838  -661.923  -672.477  -680.523  -690.111  -691.34  -695.497  -705.365  -709.107  -723.373  -724.147  -725.117  -751.387  -794.371  -805.726  -812.227  -812.54  -817.247  -829.678  -838.853  -839.608  -845.766  -851.099  -854.353  -861.892  -884.491  -887.849  -907.69  -909.555  -932.688  -941.845  -972.151  -984.418  -991.623  -1007.36  -1012.26  -1012.33  -1029.39  -1045.3  -1107.43  -1130.54  -1133.8  -1149.52  -1154.48  -1179.43  -1207.71  -1238.95  -1250.08  -1281.21  -1341.59  -1359.59  -1443.51  -1474.51  -1488.17  -1534.49  -1535.79  -1591.51  -1614.06  -1631.01  -1824.83  -1867.77  -1869.86  -1939.4  -1945.72  -1970.43  -2251.96  -2310.88  -2332.41  -2367.68  -2731.34  -2808.4  -3281.47  
2  0  0.0138672   2.73205  -2.73205  -0.348975  -10.3735  -38.0494  -39.4116  -54.7287  -55.9557  -83.8502  -96.8427  -98.4356  -109.839  -112.926  -122.137  -132.38  -139.962  -157.108  -160.788  -191.308  -191.743  -201.975  -211.029  -212.669  -228.885  -231.5  -234.175  -244.782  -253.338  -257.9  -268.369  -278.519  -287.031  -299.13  -306.221  -327.643  -337.653  -348.362  -357.04  -361.679  -364.959  -366.475  -390.134  -393.213  -395.168  -397.623  -409.439  -410.461  -410.578  -438.31  -439.646  -446.586  -455.349  -460.443  -462.673  -489.273  -490.75  -504.726  -515.831  -528.19  -543.892  -550.999  -552.691  -562.156  -563.267  -575.146  -587.55  -587.66  -599.401  -599.661  -606.121  -610.653  -619.655  -643.217  -643.334  -644.685  -661.877  -666.806  -670.903  -678.012  -694.568  -699.042  -702.395  -717.384  -726.514  -735.418  -737.092  -770.143  -776.462  -784.205  -794.621  -805.107  -814.021  -830.269  -832.444  -850.373  -850.539  -851.332  -863.942  -869.474  -886.669  -895.774  -898.087  -899.492  -944.917  -953.172  -954.713  -964.429  -985.752  -987.063  -1017.94  -1018.28  -1046.97  -1062.6  -1094.36  -1109.02  -1137.9  -1147.06  -1153.51  -1193.01  -1193.49  -1228.41  -1262.06  -1296.71  -1320.14  -1355.92  -1428.62  -1473.15  -1489.78  -1521.79  -1549.67  -1593.87  -1607.46  -1622.46  -1808.04  -1853.41  -1885  -1921.43  -1955.97  -1963.19  -2233.43  -2292.31  -2349.9  -2351.63  -2711.02  -2788.37  -3259.42  
3  0  0.0208009   2.41421  -2.41421  -0.773241  -9.5083  -37.6091  -40.4917  -54.6634  -57.4949  -83.1139  -93.3159  -95.1577  -110.087  -116.15  -127.068  -130.178  -142.843  -156.569  -163.529  -187.613  -191.078  -199.486  -205.661  -207.712  -229.011  -236.979  -239.533  -247.106  -252.601  -256.89  -266.694  -283.753  -293.086  -300.163  -307.338  -323.846  -335.307  -341.327  -353.37  -356.259  -361.037  -371.552  -382.149  -397.365  -400.421  -403.413  -403.71  -405.734  -424.711  -433.293  -445.199  -446.407  -455.315  -457.661  -470.375  -497.86  -499.359  -503.544  -516.076  -520.054  -526.204  -550.659  -551.725  -555.153  -556.049  -569.879  -589.55  -597.102  -601.421  -602.094  -609.051  -609.532  -627.258  -639.116  -649.996  -652.868  -653.713  -659.257  -662.784  -686.102  -691.303  -705.945  -708.077  -712.289  -743.247  -748.374  -752.405  -758.622  -763.057  -777.502  -789.231  -794.236  -810.825  -814.685  -831.276  -839.445  -861.875  -862.79  -865.217  -882.75  -888.223  -888.652  -907.149  -910.482  -935.797  -945.324  -957.78  -964.594  -965.302  -983.698  -1024.08  -1024.18  -1065.45  -1080.62  -1081.25  -1087.9  -1125.32  -1153.97  -1160.41  -1179  -1206.88  -1219.18  -1273.69  -1299.04  -1313.45  -1352.62  -1413.81  -1458.16  -1505.21  -1508.43  -1565  -1573.63  -1614.79  -1624.05  -1791.34  -1837.26  -1902.45  -1903.09  -1942.76  -1981.07  -2215.05  -2273.88  -2332.74  -2371.16  -2690.92  -2768.74  -3237.69  
4  0  0.0277345   2  -2  -1.3441  -8.47433  -37.0993  -41.8491  -54.3691  -59.5315  -81.7285  -90.8924  -92.0463  -110.314  -118.563  -128.712  -131.821  -146.489  -156.522  -165.82  -180.577  -190.671  -198.941  -202.79  -203.418  -227.58  -241.413  -242.953  -245.199  -249.796  -265.694  -268.108  -287.186  -296.376  -298.539  -314.354  -319.53  -325.151  -343.07  -347.644  -351.041  -360.586  -368.529  -380.782  -395.373  -395.648  -406.258  -408.812  -413.827  -421.404  -440.548  -447.065  -449.496  -455.548  -456.904  -485.74  -491.155  -504.057  -507.522  -508.653  -508.95  -535.627  -542.999  -544.129  -552.462  -555.695  -556.735  -588.311  -592.654  -604.703  -610.258  -615.921  -618.707  -620.308  -638.574  -643.921  -651.424  -658.84  -663  -663.347  -687.333  -704.856  -705.822  -715.479  -716.084  -739.81  -743.524  -758.991  -760.913  -762.338  -770.103  -783.314  -789.556  -808.65  -815.629  -828.536  -832.677  -844.076  -873.438  -874.356  -879.284  -901.898  -907.242  -916.332  -918.735  -921.948  -927.835  -943.733  -971.205  -975.832  -982.541  -1030.42  -1030.84  -1066.01  -1069.3  -1084.46  -1099.19  -1112.77  -1154.54  -1164.87  -1173.84  -1210.93  -1221.02  -1278.3  -1285.26  -1331.15  -1349.66  -1399.09  -1443.24  -1495.61  -1520.81  -1553.73  -1580.48  -1607.64  -1641.25  -1774.72  -1821.36  -1884.71  -1920.13  -1930.49  -1999.34  -2196.84  -2255.62  -2316.2  -2391  -2671.05  -2749.51  -3216.27  
5  0  0.0346681   1.51764  -1.51764  -2.03667  -7.3769  -36.5951  -43.4119  -53.6959  -61.8914  -79.9763  -89.247  -89.4039  -110.815  -119.042  -129.32  -136.099  -149.196  -158.712  -164.97  -176.321  -189.929  -194.269  -197.902  -207.104  -224.591  -241.044  -241.194  -250.769  -251.446  -265.921  -279.484  -285.467  -299.064  -303.208  -306.436  -315.915  -331.062  -339.373  -341.101  -350.166  -357.276  -362.082  -387.167  -388.727  -391.466  -407.111  -414.514  -416.588  -425.123  -442.8  -446.512  -456.589  -462.109  -463.137  -479.764  -492.044  -493.083  -501.4  -517.381  -517.683  -533.69  -534.809  -536.307  -551.602  -558.321  -559.501  -579.586  -583.729  -593.802  -620.196  -624.071  -627.283  -628.51  -631.267  -634.228  -641.603  -672.303  -673.015  -679.136  -684.241  -700.766  -719.464  -722.744  -723.491  -726.292  -726.762  -744.982  -768.561  -772.475  -774.493  -777.003  -789.159  -814.298  -820.347  -823.357  -828.4  -834.503  -870.111  -885.073  -886.024  -896.54  -911.696  -921.153  -923.217  -925.856  -931.057  -933.886  -976.667  -985.097  -991.716  -1037.16  -1038.36  -1045.87  -1056  -1100.29  -1103.89  -1118.21  -1148.95  -1157.54  -1187.37  -1203.44  -1235.41  -1257.96  -1297  -1347.04  -1349.59  -1384.44  -1428.44  -1483.25  -1534.34  -1536.58  -1596.16  -1600.91  -1659.04  -1758.2  -1805.71  -1866.5  -1918.97  -1938.04  -2018.01  -2178.79  -2237.55  -2300.25  -2411.16  -2651.41  -2730.68  -3195.16  
6  0  0.0416017   1  -1  -2.81672  -6.30086  -36.1666  -45.1372  -52.5424  -64.2601  -78.4517  -87.0148  -88.3166  -111.705  -117.809  -131.843  -139.993  -149.622  -159.191  -164.296  -177.272  -188.66  -189.311  -193.037  -211.937  -221.525  -237.953  -239.586  -256.527  -256.537  -267.504  -279.798  -292.949  -293.307  -304.756  -308.795  -312.522  -332.783  -334.409  -342.483  -342.892  -355.965  -364.522  -380.61  -381.74  -396.096  -401.637  -422.221  -424.433  -433.876  -437.72  -444.097  -467.978  -469.494  -470.211  -473.991  -476.582  -482.985  -516.735  -518.136  -524.861  -525.72  -527.78  -528.382  -561.47  -562.971  -568.136  -570.949  -574.533  -578.861  -608.163  -620.507  -631.813  -635.266  -637.528  -639.498  -649.869  -677.945  -682.761  -685.378  -696.494  -699.178  -699.534  -710.082  -729.877  -731.7  -732.223  -746.442  -747.967  -761.687  -790.05  -792.188  -802.358  -805.377  -808.93  -821.059  -836.78  -848.479  -860.836  -876.886  -896.778  -896.809  -897.764  -903.1  -939.006  -941.504  -945.507  -948.952  -974.815  -999.328  -1004.01  -1025.65  -1043.19  -1044.51  -1046.85  -1087.85  -1123.71  -1135.64  -1137.63  -1158.71  -1196.55  -1201.01  -1238.06  -1250.01  -1309.07  -1344.75  -1368.64  -1369.87  -1413.8  -1471.21  -1515.57  -1552.5  -1594.58  -1612.05  -1677.4  -1741.78  -1790.27  -1848.62  -1908.06  -1956.18  -2037.08  -2160.9  -2219.69  -2284.87  -2431.63  -2632  -2712.24  -3174.37  
7  0  0.0485354   0.482362  -0.482362  -3.63951  -5.30982  -35.8756  -47.0006  -50.9221  -66.1095  -77.5163  -85.7994  -87.2676  -112.958  -116.086  -134.876  -143.68  -149.114  -152.351  -171.632  -179.696  -184.787  -186.779  -188.267  -216.471  -219.507  -235.257  -237.78  -262.174  -262.421  -269.947  -276.058  -281.098  -304.244  -308.667  -311.653  -314.932  -325.551  -327.865  -332.295  -354.692  -359.941  -366.82  -373.683  -374.762  -386.638  -412.67  -428.886  -430.715  -433.853  -436.444  -449.242  -455.666  -464.824  -473.453  -477.462  -478.212  -490.642  -501.719  -516.398  -517.602  -530.619  -535.791  -539.771  -556.991  -562.492  -566.248  -569.68  -570.696  -584.828  -592.239  -610.797  -622.684  -647.045  -647.454  -653.969  -665.985  -675.93  -678.701  -689.521  -693.225  -695.067  -696.038  -716.408  -720.273  -727.734  -740.72  -741.365  -750.972  -767.007  -782.383  -794.436  -805.596  -807.701  -823.785  -829.422  -839.62  -850.471  -858.209  -868.886  -882.299  -884.506  -908.556  -909.507  -952.323  -954.847  -963.322  -968.292  -973.259  -1005.74  -1013.72  -1016.35  -1030.53  -1052.66  -1056.47  -1075.41  -1122.51  -1143.91  -1156.34  -1161.63  -1190.14  -1214.76  -1218.7  -1264.79  -1321.58  -1342.78  -1355.39  -1388.22  -1399.37  -1459.31  -1497.6  -1568.59  -1588.61  -1628.19  -1696.29  -1725.48  -1775.01  -1831.18  -1897.67  -1974.56  -2056.54  -2143.18  -2202.07  -2270.01  -2452.41  -2612.82  -2694.2  -3153.89  
8  0  0.055469   0  -0  -4.44967  -4.44968  -35.7709  -48.9809  -48.9809  -66.8099  -77.2244  -86.1303  -86.1304  -114.439  -114.44  -136.679  -147.172  -147.174  -148.63  -178.503  -178.504  -184.475  -184.477  -184.813  -218.485  -218.855  -235.517  -235.519  -267.457  -267.461  -269.093  -273.558  -273.566  -307.752  -310.735  -318.012  -318.043  -322.95  -323.098  -323.169  -364.759  -364.791  -367.07  -367.118  -368.793  -382.447  -420.312  -428.677  -428.733  -440.366  -440.441  -441.402  -457.634  -457.961  -468.878  -485.326  -485.362  -485.996  -507.629  -507.85  -508.898  -540.165  -543.457  -543.518  -553.756  -554.948  -558.526  -575.608  -575.733  -577.483  -601.667  -602.02  -613.914  -657.257  -657.388  -658.414  -669.556  -671.517  -681.299  -683.887  -684.942  -702.705  -703.997  -706.225  -708.581  -740.284  -741.322  -750.384  -751.176  -762.542  -783.827  -787.931  -818.449  -823.145  -830.077  -835.583  -843.085  -844.009  -850.168  -863.431  -872.393  -889.619  -920.405  -921.349  -964.684  -966.061  -972.481  -983.582  -986.19  -988.753  -1017.96  -1028  -1028.37  -1061.84  -1062.91  -1067.5  -1109.9  -1161.9  -1164.46  -1178.3  -1183.93  -1200.28  -1228.62  -1279.71  -1334.61  -1340.26  -1341.85  -1385.17  -1408.27  -1447.26  -1480.68  -1583.01  -1584.85  -1644.59  -1709.29  -1715.69  -1759.88  -1814.27  -1887.76  -1993.17  -2076.4  -2125.62  -2184.73  -2255.67  -2473.51  -2593.88  -2676.55  -3133.73  
9  0.00600469  0.0520022   0.414214  -0.414214  -3.75269  -5.18307  -35.8791  -46.9471  -51.0419  -66.1832  -77.4658  -84.9064  -88.04  -113.057  -115.945  -134.105  -147.071  -147.866  -151.116  -174.119  -176.883  -181.99  -187.685  -190.531  -216.847  -219.41  -232.915  -239.712  -256.69  -269.019  -274.503  -275.476  -275.9  -304.432  -308.823  -313.32  -315.111  -322.153  -326.311  -335.183  -357.201  -360.178  -362.599  -370.901  -379.594  -386.082  -414.443  -423.637  -425.457  -437.872  -447.384  -449.414  -454.149  -457.663  -469.645  -476.132  -493.369  -493.806  -499.048  -499.337  -526.408  -526.804  -542.819  -544.357  -551.56  -552.828  -560.695  -574.522  -584.826  -585.777  -593.488  -593.856  -631.182  -637.588  -657.293  -660.586  -667.343  -668.404  -677.427  -678.314  -684.562  -701.103  -713.284  -717.098  -723.792  -729.538  -730.38  -731.239  -761.203  -771.698  -773.924  -777.419  -799.182  -811.002  -826.574  -830.221  -839.638  -842.576  -859.256  -862.791  -878.303  -879.869  -897.753  -932.32  -943.116  -952.531  -966.605  -975.896  -984.757  -985.716  -1004.86  -1005.6  -1037.38  -1044.11  -1050.44  -1076.28  -1097.56  -1138.95  -1155.14  -1165.37  -1167.5  -1193.81  -1242.29  -1292.29  -1317.87  -1326.63  -1349.03  -1370.61  -1415.65  -1430.56  -1468.89  -1559.91  -1599.89  -1659.43  -1692.93  -1727.52  -1742.48  -1798.69  -1865.18  -2009.59  -2091.54  -2106.87  -2165.8  -2233.75  -2491.16  -2572.77  -2654.18  -3110.12  
10  0.0120094  0.0485354   0.732051  -0.732051  -3.2409  -5.77211  -36.1801  -45.0822  -53.0975  -64.7085  -78.0744  -83.663  -90.8069  -112  -117.242  -129.369  -147.644  -150.102  -154.78  -169.688  -172.395  -179.833  -191.144  -199.59  -213.588  -220.836  -230.093  -245.45  -245.581  -268.549  -276.436  -280.933  -281.663  -295.234  -306.788  -308.008  -312.188  -328.024  -330.991  -348.711  -348.774  -353.842  -356.867  -377.368  -388.185  -396.467  -404.275  -412.566  -417.263  -444.124  -451.001  -454.31  -456.512  -458.668  -458.769  -487.995  -490.243  -490.558  -501.832  -502.511  -511.938  -534.453  -536.35  -544.242  -546.046  -557.65  -558.679  -585.442  -585.834  -589.876  -596.567  -597.647  -618.132  -643.28  -647.125  -648.791  -664.948  -674.57  -674.82  -678.902  -679.871  -711.224  -717.645  -719.213  -720.276  -723.75  -727.495  -740.718  -762.716  -766.671  -772.109  -780.24  -782.751  -792.07  -818.92  -825.476  -833.489  -845.795  -855.685  -871.408  -874.496  -876.082  -894.252  -920.188  -933.171  -944.299  -947.922  -981.778  -982.611  -983.621  -989.937  -993.294  -1021.12  -1037.88  -1046.68  -1085.82  -1091.75  -1116.26  -1132.29  -1146.85  -1170.91  -1188.28  -1256.07  -1294.98  -1305.01  -1312.31  -1356.27  -1363.96  -1413.72  -1423.51  -1458.15  -1537.17  -1615.09  -1674.53  -1676.68  -1725.22  -1739.85  -1783.62  -1843.07  -2026.25  -2088.29  -2107.07  -2147.14  -2212.34  -2509.13  -2551.89  -2632.2  -3086.82  
11  0.0180141  0.0450685   0.931852  -0.931852  -2.92855  -6.15513  -36.5545  -43.6923  -54.9023  -63.087  -78.8304  -82.5513  -93.3437  -111.302  -118.12  -125.553  -147.562  -153.522  -158.456  -165.728  -168.056  -178.347  -194.163  -208.774  -210.44  -222.429  -227.412  -235.589  -250.278  -269.407  -276.947  -287.037  -287.15  -287.905  -300.417  -301.225  -316.506  -333.767  -334.423  -342.485  -347.882  -351.68  -362.704  -384.186  -391.36  -395.109  -402.602  -409.381  -410.882  -438.91  -444.752  -450.5  -464.585  -465.605  -470.047  -481.751  -482.089  -497.31  -500.819  -510.237  -511.241  -524.904  -527.763  -532.476  -561.868  -563.759  -565.055  -578.83  -579.168  -598.995  -603.164  -608.122  -613.677  -629.136  -633.407  -646.316  -666.714  -674.419  -674.55  -688.277  -689.387  -692.198  -708.769  -709.86  -731.682  -735.353  -739.482  -752.186  -755.928  -758.155  -762.243  -773.45  -783.268  -793.328  -806.992  -815.44  -836.451  -845.294  -851.492  -854.343  -864.226  -893.406  -897.464  -910.933  -914.28  -929.537  -956.344  -959.035  -979.993  -982.946  -983.978  -998.446  -1001.19  -1025.36  -1056.14  -1074.55  -1093.93  -1108.01  -1109.76  -1128.77  -1174.69  -1183.3  -1269.98  -1272.39  -1298.08  -1317.91  -1342.14  -1379.34  -1397.01  -1431.9  -1448.21  -1514.8  -1630.46  -1660.54  -1689.88  -1708.12  -1752.73  -1769.01  -1821.49  -2043.15  -2069.87  -2122.99  -2128.73  -2191.46  -2527.4  -2531.25  -2610.61  -3063.83  
12  0.0240188  0.0416017   1  -1  -2.82357  -6.28814  -36.7408  -43.1545  -55.7441  -62.2818  -79.2587  -82.0083  -94.4149  -111.042  -118.43  -124.077  -147.55  -155.409  -160.923  -163.688  -165.349  -177.814  -195.528  -209.002  -214.825  -221.439  -227.954  -229.372  -252.149  -270.754  -277.066  -282.981  -292.141  -293.373  -295.363  -295.599  -319.064  -334.196  -337.446  -341.724  -344.134  -348.906  -376.462  -377.192  -389.871  -396.608  -400.501  -404.745  -423.898  -424.617  -444.608  -449.95  -472.173  -472.78  -474.183  -474.645  -482.672  -483.849  -512.02  -514.837  -517.316  -519.688  -520.594  -522.332  -567.663  -567.95  -574.689  -574.88  -580.272  -581.336  -615.077  -616.442  -619.973  -620.809  -628.238  -631.378  -673.441  -674.207  -674.364  -684.966  -698.344  -698.403  -699.601  -699.656  -739.636  -742.305  -743.592  -746.493  -747.891  -755.438  -755.864  -775.941  -794.549  -794.863  -804.405  -804.684  -828.84  -840.688  -840.92  -858.059  -858.754  -875.018  -895.83  -911.174  -911.624  -928.161  -936.594  -968.353  -968.414  -976.094  -983.073  -983.093  -1012.91  -1013.28  -1063.3  -1065.95  -1072.31  -1087.57  -1111.28  -1124.88  -1178.75  -1178.86  -1250.13  -1283.94  -1283.98  -1328.16  -1331.03  -1380.62  -1395.04  -1438.9  -1440.9  -1492.82  -1644.51  -1645.99  -1691.24  -1705.44  -1754.72  -1766.17  -1800.52  -2051.61  -2060.28  -2110.53  -2139.31  -2171.15  -2510.83  -2546  -2589.42  -3041.16  
13  0.0220172  0.0381349   1.06597  -1.06597  -2.72093  -6.42149  -36.7652  -43.0778  -55.7092  -62.1018  -79.4027  -82.2981  -94.415  -111.035  -118.371  -124.224  -146.629  -155.326  -158.991  -165.142  -166.479  -178.293  -195.337  -208.517  -215.108  -221.505  -228.551  -229.462  -251.937  -270.583  -276.997  -283.299  -286.679  -289.529  -299.006  -301.711  -319.025  -333.499  -333.753  -340.785  -345.992  -352.958  -376.314  -377.153  -387.876  -394.438  -402.729  -407.128  -423.94  -424.673  -439.79  -454.998  -464.24  -466.169  -479.839  -482.083  -483.356  -484.301  -508.159  -511.678  -515.198  -517.352  -526.19  -529.254  -559.209  -565.983  -576.438  -580.088  -581.128  -584.129  -610.957  -612.043  -623.1  -624.868  -629.352  -631.899  -663.562  -673.596  -684.948  -685.126  -688.239  -689.373  -708.676  -709.961  -732.128  -735.291  -742.109  -751.7  -753.467  -757.609  -758.301  -776.95  -785.307  -794.659  -804.277  -814.577  -828.819  -829.301  -846.613  -852.461  -870.414  -875.069  -902.898  -903.689  -904.625  -935.746  -936.47  -956.229  -969.704  -976.416  -980.634  -996.576  -1001.18  -1025.03  -1053.14  -1074.22  -1079.12  -1082.95  -1114.48  -1121.82  -1164.22  -1193.53  -1258.98  -1269.93  -1298.05  -1316.74  -1342.33  -1381.64  -1394.03  -1425.37  -1454.67  -1504.33  -1629.96  -1660.51  -1689.46  -1706.97  -1749.57  -1771.29  -1814.96  -2042.3  -2069.38  -2121.13  -2128.31  -2188.3  -2526.05  -2530.4  -2608.74  -3062.47  
14  0.0200156  0.0346681   1.23931  -1.23931  -2.45504  -6.77811  -36.8374  -42.8521  -55.6121  -61.595  -79.8154  -83.1346  -94.429  -111.012  -118.185  -124.661  -144.263  -155.264  -155.986  -166.636  -169.279  -179.809  -194.841  -207.251  -215.873  -221.634  -229.719  -230.226  -251.393  -269.929  -276.507  -281.067  -282.791  -285.688  -305.221  -308.062  -318.669  -328.723  -331.229  -338.095  -352.01  -358.94  -375.729  -377.024  -384.264  -390.605  -407.129  -411.603  -424.082  -424.845  -433.369  -455.999  -457.935  -462.204  -480.839  -482.701  -490.026  -491.534  -500.75  -504.332  -516.002  -518.092  -534.376  -537.398  -550.723  -557.211  -580.024  -581.028  -585.551  -592.967  -604.941  -606.139  -625.025  -628.4  -633.747  -634.893  -653.008  -673.93  -677.886  -679.229  -685.395  -696.092  -719.083  -720.354  -721.973  -725.885  -738.523  -751.99  -757.921  -765.369  -767.573  -775.391  -780.185  -785.006  -814.113  -817.802  -824.57  -828.826  -835.327  -864.369  -875.067  -882.23  -896.318  -896.939  -910.922  -936.193  -943.466  -944.121  -956.454  -977.342  -989.166  -992.965  -1010.18  -1037.24  -1040.45  -1075.04  -1083.61  -1091.11  -1104.21  -1132.54  -1149.69  -1208.42  -1255.96  -1267.94  -1302.54  -1312.24  -1356.58  -1368.32  -1407.57  -1410.01  -1470.56  -1515.97  -1614.01  -1673.57  -1676.58  -1722.79  -1733.11  -1787.94  -1829.57  -2024.41  -2087.24  -2103.06  -2146.17  -2205.58  -2506.2  -2550.06  -2628.18  -3083.89  
15  0.0180141  0.0312013   1.47363  -1.47363  -2.10371  -7.27594  -36.9547  -42.4904  -55.4724  -60.8427  -80.4421  -84.438  -94.497  -110.974  -117.855  -125.374  -141.138  -152.903  -155.351  -167.178  -172.922  -182.354  -194.224  -205.565  -216.918  -221.746  -230.103  -232.71  -250.753  -268.181  -274.177  -276.533  -279.552  -287.157  -310.965  -314.48  -317.269  -325.797  -326.44  -337.877  -358.221  -365.166  -374.214  -376.764  -381.245  -386.759  -411.726  -416.518  -424.411  -424.92  -427.718  -447.812  -449.856  -469.521  -479.7  -481.924  -493.119  -496.668  -498.47  -500.046  -517.788  -519.914  -542.362  -542.797  -545.715  -548.534  -580.027  -581.041  -594.342  -598.687  -600.291  -602.168  -625.43  -629.305  -640.045  -640.822  -642.633  -667.809  -669.026  -674.672  -685.743  -707.199  -711.864  -716.051  -729.554  -730.827  -734.752  -749.228  -763.002  -766.188  -775.169  -775.481  -777.344  -784.257  -806.491  -824.045  -824.153  -828.88  -834.669  -874.821  -876.564  -889.066  -889.933  -894.185  -918.514  -932.086  -935.854  -943.326  -951.321  -977.233  -978.797  -1005.38  -1023.89  -1027.89  -1049.52  -1069.91  -1090.18  -1094.05  -1103.48  -1135.29  -1143.43  -1223.42  -1242.07  -1277.01  -1288.44  -1326.51  -1355.07  -1370.9  -1394.81  -1421.24  -1486.56  -1527.72  -1598.16  -1657.77  -1692.74  -1716.79  -1738.72  -1804.66  -1844.33  -2006.62  -2085.1  -2105.19  -2164.12  -2223.01  -2486.46  -2569.82  -2647.73  -3105.42  
16  0.0160125  0.0277345   1.73205  -1.73205  -1.72609  -7.84872  -37.1121  -42.0149  -55.3141  -59.9398  -81.1995  -86.1157  -94.6819  -110.918  -117.356  -126.334  -137.693  -149.931  -155.562  -166.866  -176.964  -185.61  -193.714  -203.761  -218.032  -221.824  -230.518  -235.74  -250.324  -264.475  -269.259  -273.988  -278.324  -289.776  -311.476  -318.528  -320.804  -321.198  -325.846  -338.551  -364.347  -370.274  -372.524  -376.32  -379.731  -383.412  -414.465  -421.007  -422.452  -425.492  -427.051  -439.706  -441.887  -476.015  -477.584  -481.639  -486.279  -489.376  -506.902  -508.612  -520.236  -522.401  -534.161  -539.955  -551.342  -554.163  -579.951  -580.95  -592.777  -594.382  -603.501  -611.145  -625.479  -629.482  -632.446  -646.905  -647.741  -657.799  -659.052  -675.478  -686.218  -701.856  -706.178  -718.433  -730.962  -740.151  -741.329  -746.068  -757.112  -765.873  -768.159  -784.966  -785.916  -791.013  -795.356  -813.209  -828.799  -834.177  -844.874  -874.509  -881.939  -883.351  -888.639  -906.266  -920.125  -925.87  -930.323  -935.791  -959.312  -965.378  -980.733  -1015.47  -1017.87  -1037.72  -1061.87  -1064.65  -1084.01  -1096.78  -1116.3  -1121.02  -1154.51  -1228.26  -1238.53  -1274.45  -1286.19  -1340.86  -1341.89  -1379.79  -1385.31  -1435.03  -1502.67  -1539.61  -1582.39  -1642.06  -1700.6  -1708.97  -1754.74  -1821.45  -1859.28  -1988.93  -2067.26  -2123.22  -2182.17  -2240.57  -2466.82  -2589.67  -2667.39  -3127.04  
17  0.014011  0.0242677   1.99116  -1.99116  -1.35702  -8.45142  -37.3024  -41.4559  -55.1586  -58.971  -81.9877  -88.0857  -95.0618  -110.841  -116.664  -127.499  -134.147  -147.168  -155.856  -165.958  -181.163  -188.973  -193.739  -202.065  -219.061  -221.878  -230.812  -239.124  -250.415  -259.429  -263.614  -272.862  -277.717  -292.911  -306.895  -315.752  -322.194  -327.231  -328.973  -339.604  -367.434  -369.362  -376.32  -377.305  -380.093  -381.034  -411.746  -422.478  -423.049  -429.175  -429.571  -431.768  -434.347  -473.333  -476.42  -481.48  -482.552  -487.069  -515.21  -517.229  -523.188  -525.455  -526.312  -531.503  -559.998  -562.704  -579.712  -580.66  -587.085  -588.939  -612.514  -619.986  -622.214  -625.748  -629.707  -647.864  -649.127  -654.002  -655.057  -676.521  -686.594  -692.135  -696.359  -727.354  -729.796  -742.03  -748.754  -750.781  -752.105  -756.545  -773.297  -784.406  -790.826  -796.283  -800.6  -802.441  -828.795  -844.359  -855.192  -872.505  -874.935  -878.492  -900.916  -908.236  -917.45  -918.465  -931.143  -937.904  -953.601  -967.444  -983.09  -1003.18  -1030.44  -1051.66  -1059.46  -1074.07  -1074.33  -1103.47  -1106.88  -1129.28  -1165.79  -1214.53  -1253.76  -1260.55  -1295.48  -1328.77  -1355.28  -1364.95  -1399.79  -1448.97  -1518.89  -1551.62  -1566.71  -1626.43  -1684.56  -1725.29  -1770.87  -1838.29  -1874.4  -1971.33  -2049.53  -2141.34  -2200.29  -2258.27  -2447.29  -2609.61  -2687.17  -3148.78  
18  0.0120094  0.0208009   2.23607  -2.23607  -1.01639  -9.051  -37.5159  -40.8504  -55.0205  -58.0048  -82.708  -90.2827  -95.7135  -110.734  -115.757  -128.815  -130.616  -144.686  -156.202  -164.668  -185.294  -190.928  -195.669  -200.719  -219.934  -221.916  -230.838  -242.672  -251.238  -254.059  -257.882  -272.254  -277.149  -296.363  -301.701  -310.616  -324.304  -333.01  -334.632  -341.112  -364.095  -369.857  -378.103  -379.728  -380.104  -385.567  -406.722  -422.559  -423.2  -424.806  -425.906  -434.696  -435.263  -466.828  -471.315  -479.001  -479.487  -494.431  -517.892  -522.686  -523.162  -525.609  -528.117  -529.295  -568.742  -571.32  -578.46  -579.49  -582.736  -584.287  -612.387  -621.317  -625.081  -628.604  -631.103  -638.02  -639.286  -661.238  -662.649  -677.718  -681.519  -686.596  -688.129  -723.945  -735.772  -741.258  -742.984  -747.284  -761.475  -762.77  -773.654  -778.648  -791.868  -796.035  -806.982  -811.018  -828.776  -854.677  -865.622  -867.293  -868.057  -876.953  -896.419  -904.714  -913.295  -930.679  -932.215  -941.901  -944.469  -975.723  -985.81  -991.026  -1043.08  -1054.42  -1064.22  -1065.72  -1086.84  -1092.89  -1110.26  -1142.35  -1177.26  -1200.88  -1246.76  -1269.09  -1304.88  -1315.68  -1350.31  -1369.79  -1414.35  -1463.04  -1535.19  -1551.11  -1563.78  -1610.89  -1668.66  -1741.68  -1787.09  -1855.18  -1889.73  -1953.82  -2031.92  -2159.56  -2218.51  -2276.11  -2427.87  -2629.65  -2707.07  -3170.61  
19  0.0100078  0.0173341   2.45668  -2.45668  -0.715951  -9.61961  -37.7401  -40.2392  -54.9069  -57.0949  -83.2879  -92.6545  -96.6864  -110.579  -114.618  -127.181  -130.217  -142.539  -156.57  -163.162  -188.936  -191.294  -199.584  -200.165  -220.641  -221.94  -230.548  -245.332  -249.705  -251.777  -253.265  -271.834  -276.481  -296.431  -299.902  -305.896  -325.908  -336.727  -341.188  -344.179  -361.502  -367.631  -377.976  -379.15  -386.272  -392.19  -401.616  -415.52  -418.077  -424.019  -424.261  -440.609  -441.043  -459.559  -464.349  -477.447  -477.92  -502.369  -510.172  -514.987  -527.802  -531.718  -535.221  -535.827  -573.889  -576.105  -577.723  -579.919  -581.425  -582.343  -602.809  -624.54  -627.852  -628.837  -629.578  -632.022  -639.227  -668.437  -670.397  -671.918  -676.263  -680.126  -688.66  -720.735  -727.407  -737.808  -739.892  -752.874  -763.113  -772.217  -773.539  -781.496  -784.179  -801.296  -817.788  -821.69  -828.753  -860.941  -861.311  -865.127  -876.163  -876.663  -884.674  -892.125  -925.692  -930.275  -931.911  -943.164  -952.514  -979.015  -984.156  -988.84  -1049.54  -1054.44  -1055.8  -1079.06  -1079.88  -1099.42  -1117.19  -1155.48  -1187.31  -1188.96  -1233.07  -1284.54  -1302.63  -1314.39  -1335.88  -1384.38  -1428.98  -1477.25  -1535.61  -1551.57  -1576.1  -1595.44  -1652.89  -1758.15  -1803.42  -1872.09  -1905.26  -1936.41  -2014.42  -2177.85  -2236.81  -2294.09  -2408.55  -2649.79  -2727.08  -3192.55  
20  0.00800626  0.0138672   2.64575  -2.64575  -0.463057  -10.1315  -37.96  -39.6647  -54.8197  -56.285  -83.7004  -95.1546  -97.9812  -110.341  -113.248  -123.926  -131.625  -140.767  -156.929  -161.591  -191.253  -191.35  -201.25  -204.117  -221.203  -221.95  -230.022  -241.9  -246.367  -251.659  -255.365  -271.497  -275.618  -291.229  -300.674  -304.464  -327.392  -337.314  -348.051  -349.302  -360.273  -365.055  -377.79  -378.845  -392.97  -396.692  -399.112  -407.769  -410.657  -424.326  -424.407  -446.755  -447.396  -452.159  -457.057  -476.281  -476.801  -502.527  -506.875  -510.485  -531.887  -536.142  -543.715  -544.455  -568.406  -571.591  -580.762  -581.744  -586.666  -589.043  -593.55  -618.459  -619.735  -624.691  -628.986  -640.76  -648.245  -662.196  -666.899  -675.1  -678.185  -682.533  -689.491  -717.263  -718.981  -728.981  -737.267  -752.803  -764.583  -771.34  -782.924  -784.369  -789.963  -806.697  -828.422  -828.979  -832.503  -854.431  -854.711  -872.995  -875.389  -876.9  -879.716  -886.845  -918.723  -931.261  -938.459  -955.487  -961.105  -967.147  -992.133  -992.755  -1044.71  -1044.85  -1065.42  -1068.6  -1094.15  -1112.01  -1124.31  -1168.64  -1173.81  -1200.88  -1219.48  -1289.6  -1300.09  -1321.67  -1324.01  -1399.04  -1443.68  -1491.6  -1520.19  -1567.99  -1580.07  -1588.61  -1637.27  -1774.71  -1819.85  -1889.02  -1919.09  -1921.01  -1997.04  -2196.24  -2255.2  -2312.21  -2389.33  -2670.02  -2747.2  -3214.6  
21  0.00600469  0.0104004   2.79793  -2.79793  -0.262454  -10.562  -38.1583  -39.1671  -54.7569  -55.6117  -83.9612  -97.7312  -99.5468  -109.944  -111.671  -120.976  -132.939  -139.391  -157.251  -160.105  -191.386  -191.917  -204.297  -208.894  -221.648  -221.935  -229.403  -236.679  -240.789  -255.665  -258.226  -271.185  -274.438  -286.191  -297.164  -307.878  -328.757  -336.054  -354.321  -355.012  -361.261  -362.758  -377.564  -378.675  -392.427  -399.801  -400.1  -403.485  -405.895  -424.517  -424.592  -444.7  -449.705  -453.193  -454.074  -475.387  -475.941  -495.024  -499.04  -518.443  -535.786  -540.577  -552.582  -553.4  -562.838  -566.868  -580.524  -581.565  -584.882  -595.657  -597.948  -608.851  -610.158  -624.568  -628.986  -649.989  -652.588  -657.139  -657.565  -679.023  -685.238  -688.223  -691.013  -709.211  -714.788  -720.802  -735.266  -742.778  -761.403  -776.402  -793.015  -795.205  -796.623  -812.253  -828.642  -839.675  -843.414  -847.927  -848.241  -861.406  -867.443  -876.541  -886.519  -897.637  -907.245  -930.958  -950.927  -955.424  -967.269  -970.596  -995.646  -1001.53  -1034.97  -1040.38  -1052.02  -1081.47  -1108.53  -1124.44  -1131.78  -1160.4  -1181.81  -1205.99  -1213.05  -1276.57  -1307.7  -1315.74  -1333.75  -1413.78  -1458.45  -1504.86  -1506.09  -1564.78  -1584.41  -1601.36  -1621.79  -1791.33  -1836.38  -1901.87  -1905.96  -1937  -1979.77  -2214.72  -2273.67  -2330.48  -2370.22  -2690.34  -2767.44  -3236.75  
22  0.00400313  0.00693362   2.90931  -2.90931  -0.117247  -10.8888  -38.3171  -38.7824  -54.7155  -55.1056  -84.1082  -100.304  -101.286  -109.25  -109.948  -118.549  -134.037  -138.415  -157.506  -158.862  -191.428  -191.802  -208.369  -213.797  -221.862  -222.01  -228.837  -231.571  -235.3  -259.902  -261.401  -270.805  -272.797  -281.474  -294.235  -311.282  -329.899  -333.937  -357.135  -360.03  -362.988  -365.536  -377.293  -378.572  -388.447  -392.435  -396.984  -406.766  -412.736  -424.524  -424.842  -437.507  -442.457  -459.727  -460.89  -474.744  -475.31  -487.674  -491.378  -526.217  -539.541  -544.881  -557.505  -561.1  -562.559  -562.989  -575.977  -580.822  -581.766  -599.315  -600.633  -604.767  -606.959  -624.482  -628.941  -643.065  -647.968  -659.282  -666.213  -680.884  -688.811  -694.725  -697.326  -700.446  -708.754  -716.034  -732.179  -734.616  -751.692  -788.315  -800.46  -805.842  -806.36  -817.967  -828.533  -841.462  -841.847  -849.95  -850.727  -854.43  -855.469  -876.59  -895.841  -897.36  -908.555  -930.725  -943.847  -963.349  -977.455  -982.034  -999.331  -1010.51  -1025.12  -1036.19  -1038.97  -1094.42  -1123.02  -1135.79  -1140.55  -1147.06  -1192.61  -1194.98  -1225.48  -1263.53  -1293.96  -1331.49  -1343.61  -1428.61  -1473.3  -1489.62  -1520.73  -1549.58  -1600.71  -1606.45  -1614.45  -1808.04  -1853.02  -1884.74  -1922.89  -1953.23  -1962.62  -2233.28  -2292.22  -2348.88  -2351.21  -2710.76  -2787.79  -3259  
23  0.00200156  0.00346681   2.9772  -2.9772  -0.0293992  -11.0933  -38.4202  -38.5392  -54.6921  -54.7912  -84.1792  -102.68  -103.012  -108.143  -108.242  -116.951  -134.779  -137.834  -157.67  -158.024  -191.464  -191.575  -212.504  -218.598  -221.582  -222.442  -227.18  -228.437  -229.953  -264.097  -264.659  -270.012  -270.591  -277.571  -292.362  -313.972  -330.675  -331.872  -358.387  -359.225  -369.778  -371.575  -377.032  -378.485  -384.06  -384.961  -392.303  -413.539  -419.188  -424.104  -425.375  -430.993  -435.373  -466.431  -467.707  -474.355  -474.881  -480.491  -484.115  -533.41  -542.78  -546.625  -555.046  -558.643  -568.734  -570.95  -571.774  -580.728  -581.681  -589.869  -591.19  -613.951  -616.033  -624.441  -628.782  -633.772  -638.621  -668.467  -674.754  -682.19  -687.908  -692.984  -700.312  -702.832  -706.112  -714.506  -723.073  -733.283  -742.212  -800.266  -806.787  -816.696  -817.115  -823.82  -828.214  -835.012  -835.319  -839.054  -843.957  -861.842  -865.521  -876.63  -884.51  -908.349  -919.599  -930.648  -932.416  -975.47  -987.112  -994.416  -1003.15  -1014.95  -1019.74  -1026.47  -1032.4  -1107.44  -1133.8  -1137.6  -1144.54  -1152.12  -1179.33  -1208.12  -1238.17  -1250.48  -1280.49  -1347.29  -1353.65  -1443.51  -1474.47  -1488.21  -1534.47  -1535.52  -1591.25  -1616.7  -1628.09  -1824.83  -1867.71  -1869.76  -1939.8  -1945.58  -1969.71  -2251.93  -2310.86  -2332.31  -2367.43  -2731.27  -2808.26  -3281.36  
24  0  0   3  -3  0  -11.1629  -38.4559  -38.456  -54.6846  -54.6846  -84.1999  -103.997  -103.997  -107.265  -107.265  -116.403  -135.044  -137.641  -157.727  -157.727  -191.478  -191.481  -214.83  -221.057  -221.058  -224.673  -225.216  -225.217  -228.306  -267.46  -267.464  -268.16  -268.16  -275.894  -291.721  -315.07  -330.951  -330.96  -358.798  -358.826  -376.42  -376.553  -377.15  -377.196  -379.446  -379.501  -390.716  -418.276  -422.387  -422.392  -427.911  -427.921  -429.6  -472.666  -472.711  -473.957  -474.316  -474.372  -479.377  -537.885  -544.293  -544.312  -556.812  -557.06  -564.545  -579.924  -580.416  -580.611  -581.127  -581.843  -582.011  -622.823  -623.906  -624.084  -625.673  -629.163  -629.773  -676.797  -680.536  -680.893  -685.8  -690.901  -692.574  -710.676  -713.774  -713.819  -716.325  -732.866  -733.066  -811.447  -813.877  -825.159  -825.339  -827.266  -827.976  -828.667  -830.508  -832.775  -834.238  -872.993  -873.254  -876.635  -876.746  -919.458  -921.133  -930.686  -930.856  -986.896  -997.13  -1004.18  -1006.22  -1007.81  -1014.81  -1029.23  -1029.26  -1120.54  -1120.62  -1152.07  -1152.54  -1164.87  -1166.16  -1221.25  -1237.41  -1251.14  -1267.27  -1362.37  -1364.62  -1458.49  -1459.4  -1503.19  -1519.44  -1550.45  -1576.2  -1632.08  -1642.56  -1841.69  -1850.77  -1886.6  -1928.65  -1956.69  -1986.46  -2270.66  -2313.51  -2329.58  -2386.12  -2751.88  -2828.84  -3303.83  
