#index kx_value ky_value E0(k)  E1(k)   E2(k) .....
0  0  0   3  -3  0  -32.8584  -61.7293  -61.7293  -88.9577  -88.9577  -143.473  -190.668  -190.668  -194.464  -194.464  -198.068  -221.454  -248.86  -270.75  -270.75  -311.661  -311.661  -356.194  -410.091  -413.948  -413.948  -420.074  -420.074  -422.275  -476.016  -476.016  -477.22  -478.658  -478.658  -486.382  -572.577  -581.325  -581.325  -599.145  -599.145  -610.571  -723.549  -724.197  -724.197  -725.627  -725.627  -726.45  -789.254  -792.399  -792.399  -799.039  -799.039  -802.702  -838.171  -841.073  -841.073  -846.344  -846.344  -849.008  -992.427  -994.258  -994.258  -997.964  -997.964  -999.865  -1124.36  -1124.54  -1124.54  -1124.91  -1124.91  -1125.09  -1181.45  -1181.96  -1181.96  -1183  -1183  -1183.53  -1276.32  -1278.65  -1278.65  -1284.72  -1284.72  -1291.09  -1294.59  -1300.57  -1300.57  -1305.84  -1305.84  -1307.76  -1523.57  -1523.8  -1523.8  -1524.25  -1524.25  -1524.48  -1610.27  -1610.32  -1610.32  -1610.42  -1610.42  -1610.46  -1680.53  -1680.73  -1680.73  -1681.13  -1681.13  -1681.33  -1726.22  -1726.45  -1726.45  -1726.89  -1726.9  -1727.12  -1869.77  -1870.55  -1870.56  -1872.35  -1872.35  -1873.43  -1885.17  -1886.18  -1886.18  -1887.83  -1887.83  -1888.54  -2171.98  -2172  -2172  -2172.05  -2172.05  -2172.08  -2187.56  -2187.58  -2187.58  -2187.61  -2187.64  -2187.66  -2244.71  -2244.76  -2244.77  -2244.84  -2244.88  -2244.91  -2345.87  -2346.04  -2346.07  -2346.41  -2346.44  -2346.62  -2362.9  -2363.06  -2363.09  -2363.38  -2363.43  -2363.57  -2577.99  -2578.1  -2578.12  -2578.33  -2578.35  -2578.46  -2593.83  -2593.93  -2593.94  -2594.14  -2594.16  -2594.26  -2850.58  -2850.58  -2850.62  -2850.62  -2851.4  -2851.4  -2920.76  -2920.77  -2920.8  -2920.82  -2922.8  -2922.8  -2938.97  -2939.04  -2939.05  -2939.12  -2939.16  -2939.2  -2966.28  -2966.3  -2966.42  -2966.44  -2972.5  -2972.5  -3117.39  -3117.6  -3117.67  -3117.9  -3120.84  -3120.98  -3121.12  -3121.33  -3121.95  -3122  -3126.29  -3126.3  -3404.08  -3404.1  -3405.81  -3405.84  -3405.87  -3405.88  -3420.18  -3420.2  -3422.96  -3422.97  -3423  -3423.01  -3605.13  -3605.13  -3605.71  -3605.71  -3662.03  -3662.03  -3665  -3665  -3763.38  -3763.38  -3766.5  -3766.5  -3780.25  -3780.26  -3786.06  -3786.06  -3824.61  -3824.62  -3829.27  -3829.28  -3829.32  -3829.32  -4003.49  -4003.62  -4003.92  -4004.05  -4007.54  -4007.54  -4008.11  -4008.11  -4350.1  -4350.1  -4361.27  -4361.27  -4364.4  -4364.4  -4367.3  -4367.3  -4445.41  -4445.41  -4515.51  -4515.52  -4560.77  -4560.79  -4712.1  -4712.18  -4715.52  -4715.59  -4832.6  -4832.6  -5007.21  -5007.25  -5011.71  -5011.75  -5377.23  -5377.24  -5423.64  -5423.64  -5433.98  -5434.02  -5535.32  -5535.37  -5552.14  -5552.17  -5775.39  -5775.82  -5780.64  -5781.07  -6132.98  -6132.98  -6394.74  -6394.79  -6464.78  -6464.81  -6509.95  -6509.96  -6661.36  -6664.76  -6667.48  -6670.9  -6960.73  -6960.77  -7503.8  -7503.87  -7560.5  -7560.67  -7661.84  -7669.07  -7678.61  -7686.14  -7906.94  -7907.37  -8698.58  -8698.72  -8768.56  -8776.62  -8813.66  -8825.12  -8971.04  -8974.46  -9984.89  -9989.94  -10041.6  -10064.8  -10149.9  -10167  -11357  -11386.9  -11434.7  -11483.2  -12825.3  -12900  -14399.3  
1  0  0.00648023   2.96962  -2.96962  -0.096635  -32.4337  -61.5739  -62.1327  -89.0844  -89.3545  -143.604  -185.072  -187.401  -194.797  -197.818  -202.515  -222.891  -246.847  -270.294  -272.508  -311.463  -312.504  -357.425  -399.94  -409.132  -410.819  -422.616  -424.881  -433.279  -463.973  -470.232  -473.302  -484.862  -486.567  -495.181  -564.181  -577.76  -586.276  -595.488  -603.157  -618.359  -705.324  -715.115  -715.302  -734.77  -734.81  -744.807  -774.273  -785.15  -787.612  -804.172  -805.636  -816.934  -823.502  -834.34  -835.248  -852.56  -854.446  -864.905  -974.801  -978.491  -996.24  -996.315  -1014.05  -1017.73  -1100.27  -1112.44  -1112.45  -1137.02  -1137.03  -1149.46  -1158.02  -1170.38  -1170.43  -1194.92  -1194.95  -1207.22  -1255.91  -1265.57  -1271.88  -1279.14  -1287.11  -1287.72  -1297.34  -1298.15  -1306.07  -1313.59  -1319.85  -1328.94  -1499.43  -1499.88  -1524.16  -1524.16  -1548.45  -1548.9  -1580.99  -1595.67  -1595.67  -1625.19  -1625.19  -1640.03  -1651.55  -1665.93  -1665.94  -1695.44  -1695.44  -1697.31  -1710.57  -1712.5  -1712.5  -1741.98  -1741.99  -1756.31  -1843.13  -1845.5  -1859.75  -1860.89  -1870.37  -1870.37  -1888.38  -1888.39  -1897.76  -1899.04  -1913.35  -1915.57  -2142.65  -2142.71  -2153.29  -2170.24  -2170.29  -2172.28  -2172.29  -2201.58  -2201.63  -2204.86  -2204.86  -2210.49  -2222.22  -2227.77  -2227.83  -2262.2  -2262.2  -2279.42  -2311.92  -2326.72  -2326.81  -2328.95  -2348.58  -2348.69  -2361.18  -2361.18  -2380.82  -2383.01  -2383.06  -2397.88  -2545.88  -2546.18  -2562.54  -2562.69  -2576.89  -2576.96  -2595.6  -2595.61  -2609.84  -2610  -2626.4  -2626.68  -2811.38  -2830.94  -2831.77  -2870.32  -2870.37  -2881.58  -2890.91  -2900.75  -2902.68  -2904.84  -2905.09  -2927.21  -2938.75  -2938.83  -2940.59  -2940.6  -2947.26  -2953.4  -2962.27  -2973.59  -2973.71  -2986.57  -2986.7  -3011.95  -3078.47  -3081.91  -3089.99  -3094.7  -3109.61  -3114.44  -3129.36  -3129.44  -3148.97  -3149.06  -3161.37  -3165.74  -3366.98  -3368.18  -3383.79  -3387.19  -3402.8  -3405.83  -3421.75  -3423.27  -3441.89  -3441.94  -3460.91  -3460.96  -3561.54  -3582.99  -3620.86  -3627.29  -3627.87  -3640.08  -3684.37  -3687.32  -3722.36  -3738.96  -3741.95  -3760.71  -3783.26  -3785.4  -3786.67  -3790.1  -3805.01  -3810.49  -3824.76  -3829.47  -3868.73  -3868.77  -3963.39  -3963.97  -3969.51  -3993.97  -4013.88  -4017.82  -4038.36  -4042.35  -4308.65  -4320.28  -4325.41  -4347.98  -4366.39  -4369.68  -4400.71  -4403.84  -4420.86  -4470.08  -4490.65  -4536.74  -4539.89  -4585.97  -4679.55  -4699.15  -4728.84  -4748.45  -4788.49  -4832.69  -4968.02  -4997.5  -5021.8  -5051.15  -5350.16  -5379.53  -5404.32  -5407.1  -5418.82  -5461.28  -5505.97  -5527.68  -5560.16  -5581.86  -5736.44  -5760.9  -5795.9  -5820.23  -6088.88  -6123.22  -6365.26  -6424.38  -6435  -6480.99  -6494.1  -6540.07  -6623.87  -6643.47  -6689.16  -6708.58  -6916.68  -6946.03  -7471.81  -7528.7  -7535.87  -7592.86  -7627.56  -7649.23  -7698.89  -7720.65  -7863.14  -7887.47  -8664.18  -8733.24  -8733.86  -8779.78  -8810.9  -8860.1  -8928.73  -8948.16  -9947.97  -10004.9  -10026.9  -10101.9  -10110.8  -10132.5  -11317.6  -11395.1  -11426.4  -11444.3  -12783.5  -12858.4  -14355.2  
2  0  0.0129605   2.87939  -2.87939  -0.385366  -31.2466  -61.1245  -63.2543  -89.4495  -90.545  -143.946  -177.544  -182.859  -193.161  -202.609  -209.459  -227.015  -242.172  -268.958  -276.407  -311.035  -315.055  -360.92  -386.666  -402.178  -402.995  -430.39  -431.789  -447.375  -450.572  -463.753  -466.911  -492.615  -494.676  -509.124  -551.866  -568.371  -589.542  -593.594  -613.912  -631.346  -686.153  -705.457  -705.613  -744.755  -744.765  -756.031  -764.8  -774.885  -776.777  -805.122  -813.098  -813.83  -827.001  -827.59  -835.865  -864.237  -865.91  -884.242  -955.869  -959.6  -996.726  -996.751  -1033.84  -1037.53  -1076.1  -1100.18  -1100.18  -1133.9  -1149.34  -1149.34  -1158.67  -1158.71  -1174.45  -1207.77  -1207.78  -1232.16  -1232.77  -1246.01  -1254.61  -1258.83  -1282.68  -1282.72  -1303.52  -1303.61  -1326.86  -1331.77  -1340.63  -1353.08  -1475.33  -1475.78  -1524.58  -1524.58  -1551.88  -1573.38  -1573.83  -1581.08  -1581.08  -1622.47  -1640.12  -1640.12  -1650.51  -1650.52  -1668.24  -1669.96  -1699.41  -1699.42  -1709.53  -1709.53  -1740.49  -1758.4  -1758.41  -1786.21  -1815.31  -1818.1  -1834.65  -1835.37  -1867.16  -1867.16  -1892.48  -1892.48  -1924.11  -1924.97  -1941.61  -1944.26  -2113.54  -2113.64  -2119.29  -2153.14  -2153.19  -2172.59  -2172.59  -2176.47  -2211.13  -2211.19  -2222.03  -2222.03  -2231.55  -2231.59  -2257.07  -2277.9  -2279.99  -2279.99  -2294.88  -2304.83  -2304.92  -2314.27  -2337.1  -2337.21  -2373.69  -2373.69  -2405.95  -2405.96  -2415.73  -2432.72  -2513.27  -2513.62  -2532.1  -2532.21  -2573.92  -2574  -2599.41  -2599.41  -2641.15  -2641.25  -2659.8  -2660.13  -2772.42  -2811.43  -2812.25  -2842.62  -2870.61  -2870.75  -2880.58  -2882.78  -2888.28  -2890.18  -2890.23  -2929.04  -2930.69  -2934.95  -2939.65  -2939.89  -2959.29  -2959.33  -3001.98  -3007.19  -3007.29  -3009.2  -3009.31  -3039.52  -3042.97  -3051.68  -3061.16  -3065.98  -3099.96  -3104.73  -3139.89  -3139.97  -3178.67  -3178.76  -3201.11  -3205.48  -3329.48  -3330.28  -3348.34  -3352.16  -3399.88  -3403.68  -3425.5  -3426.26  -3477.75  -3477.8  -3499.62  -3499.67  -3517.66  -3560.86  -3576.99  -3618.5  -3649.46  -3650.05  -3678.5  -3698.1  -3707.09  -3710  -3712.09  -3744.28  -3746.48  -3751.15  -3800.68  -3804.49  -3825.16  -3829.9  -3832.93  -3838  -3908.45  -3908.49  -3919.54  -3920.13  -3935.54  -3984.49  -4024.2  -4028.14  -4073.16  -4077.14  -4266.76  -4276.43  -4284.5  -4344.73  -4371.78  -4373.73  -4396.41  -4440.44  -4443.55  -4465.36  -4494.86  -4513.8  -4563.82  -4612.26  -4645.8  -4684.56  -4744.31  -4744.65  -4783.07  -4833.06  -4929.09  -4988.06  -5032.14  -5090.84  -5323.11  -5335.69  -5380.6  -5414.26  -5431.42  -5474.18  -5488.93  -5506.36  -5582.51  -5614.68  -5697.56  -5746.48  -5811.24  -5859.87  -6045.06  -6113.72  -6335.9  -6404.78  -6453.14  -6454.09  -6522.95  -6571.29  -6585.2  -6623.95  -6709.65  -6748.04  -6872.89  -6931.59  -7439.84  -7497.27  -7567.89  -7590.84  -7622.99  -7625.46  -7726.31  -7758.23  -7819.41  -7868.05  -8629.89  -8698.71  -8747.01  -8767.9  -8844.85  -8885.23  -8896.09  -8923.63  -9911.08  -9968.59  -10064  -10069.3  -10101.2  -10139.5  -11278.5  -11355.3  -11406.5  -11466.2  -12741.9  -12817.2  -14311.3  
3  0  0.0194407   2.73205  -2.73205  -0.862607  -29.4996  -60.4263  -64.8921  -90.0107  -92.5243  -144.312  -170.323  -178.293  -190.91  -207.533  -215.874  -233.405  -236.553  -266.861  -280.765  -310.73  -319.326  -366.223  -373.171  -395.043  -395.458  -437.178  -437.73  -438.892  -457.791  -461.035  -462.232  -500.799  -502.85  -523.94  -539.309  -556.827  -591.4  -593.823  -627.488  -645.53  -667.224  -695.883  -696.054  -737.587  -754.73  -754.741  -764.104  -765.918  -785.103  -786.912  -816.054  -816.343  -826.141  -826.539  -855.223  -876.744  -878.664  -904.202  -937.19  -940.941  -997.501  -997.517  -1052.2  -1053.99  -1057.66  -1087.93  -1087.94  -1110.04  -1147.28  -1147.32  -1161.7  -1161.71  -1199.72  -1209.49  -1220.93  -1220.96  -1224.69  -1236.71  -1239.02  -1257.4  -1278.07  -1278.08  -1309.96  -1309.99  -1348.23  -1351.32  -1363.53  -1377.85  -1451.52  -1451.97  -1523.04  -1525.27  -1525.27  -1566.6  -1566.6  -1593.65  -1598.58  -1599.03  -1634.75  -1634.78  -1639.45  -1655.16  -1655.16  -1687.33  -1687.33  -1700.16  -1723.29  -1723.29  -1770.66  -1775.8  -1775.83  -1787.33  -1790.38  -1810.19  -1810.66  -1816.39  -1863.5  -1863.51  -1897.6  -1897.6  -1950.27  -1950.86  -1970.73  -1973.65  -2084.34  -2084.84  -2085.93  -2135.97  -2136.02  -2142.72  -2173.23  -2173.24  -2194.87  -2194.93  -2239.32  -2239.32  -2244.15  -2261.14  -2261.7  -2261.74  -2282.37  -2282.47  -2292.21  -2298.15  -2298.15  -2326.86  -2326.96  -2349.39  -2385.67  -2385.67  -2430.14  -2430.14  -2450.84  -2467.83  -2480.47  -2480.84  -2502.4  -2502.49  -2570.41  -2570.5  -2604.31  -2604.31  -2672.25  -2672.32  -2693.96  -2694.32  -2733.73  -2792.02  -2792.83  -2803.94  -2836.86  -2837.03  -2849.64  -2859.87  -2862.23  -2910.15  -2910.2  -2912.07  -2917.99  -2940.29  -2940.38  -2970.75  -2977.96  -2978.01  -3000.85  -3004.29  -3030.13  -3030.24  -3032.58  -3037.48  -3041.73  -3043.68  -3044.14  -3090.64  -3091.68  -3095.4  -3150.67  -3150.76  -3208.72  -3208.8  -3241.12  -3245.49  -3291.78  -3292.31  -3313.64  -3317.74  -3396.42  -3400.58  -3430.33  -3430.77  -3474.04  -3513.56  -3513.61  -3533.4  -3538.76  -3538.92  -3538.98  -3597.28  -3634.9  -3654.53  -3671.66  -3672.26  -3684.7  -3707.77  -3712.47  -3729.13  -3730.17  -3733.01  -3817.56  -3821.54  -3825.98  -3830.69  -3862.01  -3866.84  -3875.97  -3876.56  -3901.85  -3948.45  -3948.49  -3975.28  -4034.81  -4038.74  -4108.24  -4112.2  -4224.55  -4232.85  -4244.47  -4341.16  -4372.08  -4377.44  -4378.66  -4439.74  -4480.43  -4483.54  -4491.86  -4519.76  -4587.42  -4612.3  -4639.53  -4670.3  -4701.08  -4760.03  -4818.03  -4833.69  -4890.43  -4978.89  -5042.77  -5130.82  -5292.13  -5296.09  -5354.46  -5409.98  -5441.86  -5458.54  -5486.25  -5516.93  -5604.33  -5648.72  -5658.96  -5732.33  -5826.85  -5899.8  -6001.51  -6104.51  -6306.64  -6374.23  -6426.27  -6483.91  -6546.78  -6551.48  -6603.5  -6604.77  -6730.39  -6787.83  -6829.37  -6917.43  -7407.89  -7466.21  -7553.59  -7597.97  -7599.94  -7658.44  -7753.19  -7775.96  -7797.05  -7848.92  -8595.71  -8663.24  -8715.23  -8802.7  -8841.98  -8878.56  -8899.43  -8933.01  -9874.2  -9932.65  -10027.3  -10071.1  -10101.2  -10177.5  -11239.4  -11315.1  -11369.6  -11506.2  -12700.3  -12776.4  -14267.6  
4  0  0.0259209   2.53209  -2.53209  -1.52216  -27.4087  -59.543  -66.8438  -90.7058  -95.271  -144.276  -163.978  -173.782  -188.586  -212.342  -221.612  -230.919  -241.401  -264.265  -284.908  -310.841  -325.217  -359.818  -372.832  -387.889  -388.072  -424.389  -443.885  -445.075  -453.24  -456.304  -477.493  -509.339  -511.281  -527.003  -539.095  -544.999  -593.197  -595.012  -642.121  -648.561  -660.34  -686.384  -686.604  -719.299  -752.449  -754.55  -765.139  -765.212  -769.088  -805.676  -811.398  -811.594  -833.357  -833.637  -874.819  -890.052  -892.624  -918.807  -922.574  -924.553  -998.585  -998.599  -1028.58  -1074.43  -1075.72  -1075.74  -1078.1  -1086.47  -1136.23  -1136.28  -1174.08  -1174.08  -1186.32  -1202.49  -1218.94  -1220.27  -1225.26  -1234.46  -1234.47  -1273.8  -1273.81  -1282.91  -1316.75  -1316.76  -1369.37  -1371.44  -1387.71  -1403.06  -1427.98  -1428.43  -1494.49  -1526.22  -1526.22  -1552.24  -1552.24  -1565.11  -1610.88  -1618.86  -1618.88  -1624.06  -1624.51  -1670.3  -1670.3  -1676.09  -1676.1  -1730.64  -1736.87  -1736.87  -1759.35  -1762.57  -1786.3  -1786.6  -1794.04  -1794.05  -1801.16  -1846.84  -1859.83  -1859.83  -1903.34  -1903.34  -1976.38  -1976.79  -2000.48  -2003.58  -2051.81  -2056.31  -2056.44  -2109.25  -2118.83  -2118.88  -2173.9  -2173.91  -2179.2  -2179.25  -2210.68  -2227.68  -2256.63  -2256.63  -2259.99  -2260.08  -2292.13  -2292.17  -2316.63  -2316.63  -2317.29  -2317.38  -2327.61  -2384.79  -2397.71  -2397.72  -2447.63  -2448.03  -2454.97  -2454.97  -2473.29  -2473.37  -2486.23  -2503.22  -2566.84  -2566.93  -2609.83  -2609.83  -2695.31  -2703.32  -2703.37  -2728.7  -2729.09  -2765.53  -2772.71  -2773.51  -2803.31  -2803.57  -2811.32  -2838.99  -2841.54  -2895.9  -2901.66  -2930.22  -2930.27  -2941.23  -2941.31  -2962.45  -2965.89  -2996.47  -2996.51  -3004.3  -3009.28  -3011.08  -3053.35  -3053.46  -3078.83  -3079.03  -3081.63  -3082.7  -3086.38  -3131.96  -3161.75  -3161.84  -3239.06  -3239.15  -3254.04  -3254.42  -3279.52  -3281.42  -3283.8  -3285.77  -3392.89  -3397.22  -3430.7  -3435.79  -3436.08  -3490.08  -3516.69  -3549.44  -3549.49  -3576.4  -3578.71  -3578.76  -3591.59  -3611.24  -3657.35  -3669.4  -3674.06  -3693.9  -3694.51  -3714.58  -3753.59  -3756.34  -3826.7  -3831.41  -3832.67  -3833.26  -3834.82  -3838.95  -3868.45  -3891.76  -3896.41  -3966.36  -3988.72  -3988.76  -4045.69  -4049.63  -4143.6  -4147.54  -4182.18  -4189.55  -4205.14  -4337.59  -4347.85  -4383.39  -4384.13  -4413.95  -4470.77  -4520.7  -4523.81  -4544.75  -4579.1  -4610.85  -4656.34  -4657.79  -4667.66  -4776.04  -4834.6  -4852.05  -4853.29  -4970  -5053.67  -5171.07  -5248.84  -5269.09  -5328.66  -5405.98  -5409.62  -5466.78  -5485.7  -5545.28  -5620.64  -5626.22  -5683.4  -5718.46  -5842.74  -5940.01  -5958.24  -6095.57  -6277.49  -6343.51  -6400.26  -6508.65  -6513.83  -6579.82  -6585.88  -6636.56  -6751.42  -6786.13  -6827.93  -6903.54  -7375.98  -7435.49  -7516.41  -7573.58  -7632.01  -7691.78  -7732.79  -7780.11  -7830.06  -7836.52  -8561.64  -8627.59  -8684.3  -8799.03  -8837.61  -8875.54  -8912.13  -8970.76  -9837.36  -9897.08  -9985.28  -10041.7  -10138.5  -10215.9  -11200.5  -11274.9  -11333.5  -11546.6  -12658.9  -12736.1  -14224.3  
5  0  0.0324012   2.28558  -2.28558  -2.35487  -25.1475  -58.5446  -68.9701  -91.4566  -98.7372  -143.039  -159.27  -169.339  -186.525  -216.172  -226.449  -226.947  -249.867  -261.931  -288.723  -311.513  -332.418  -346.811  -379.593  -380.79  -381.4  -412.05  -443.624  -446.677  -455.36  -456.709  -493.017  -514.412  -518.94  -519.955  -533.035  -554.894  -595.293  -596.86  -630.174  -657.345  -675.498  -676.933  -677.357  -701.267  -740.529  -743.608  -751.947  -775.303  -775.345  -806.287  -806.435  -826.519  -841.686  -841.928  -894.137  -900.736  -904.058  -904.52  -907.961  -945.234  -999.984  -999.999  -1005.23  -1062.78  -1063.59  -1063.95  -1095.17  -1098.83  -1125.44  -1125.52  -1163.35  -1180.01  -1186.5  -1186.51  -1201.58  -1202.39  -1248.08  -1248.12  -1251.14  -1269.97  -1269.97  -1308.7  -1323.95  -1323.97  -1390.48  -1391.97  -1404.73  -1405.17  -1412.7  -1428.62  -1466.2  -1527.4  -1527.4  -1536.82  -1538.04  -1538.06  -1582.63  -1602.91  -1602.91  -1649.81  -1650.26  -1665.56  -1665.57  -1685.55  -1685.55  -1731.49  -1734.8  -1750.41  -1750.41  -1761.4  -1762.87  -1763.08  -1813  -1813.01  -1831.89  -1856.3  -1856.3  -1877.57  -1909.55  -1909.55  -2002.55  -2002.85  -2018.65  -2028.06  -2028.14  -2030.74  -2033.93  -2076.06  -2101.73  -2101.79  -2163.01  -2163.07  -2175.64  -2175.65  -2177.49  -2194.49  -2237.89  -2237.99  -2273.99  -2273.99  -2308.13  -2308.22  -2322.79  -2322.83  -2335.48  -2335.48  -2363.3  -2410.05  -2410.05  -2414.88  -2415.29  -2420.46  -2444.65  -2444.73  -2480.25  -2480.26  -2521.89  -2538.89  -2563.39  -2563.47  -2615.8  -2615.8  -2657.16  -2727.39  -2734.47  -2734.51  -2753.5  -2754.27  -2763.91  -2764.31  -2769.78  -2770.37  -2773.54  -2818.09  -2820.82  -2880.44  -2886.03  -2924.33  -2927.77  -2942.44  -2942.52  -2950.39  -2950.44  -2976.33  -2981.39  -3014.93  -3014.98  -3051.68  -3072.92  -3077.25  -3077.37  -3077.66  -3114.61  -3114.68  -3123.16  -3172.52  -3173.14  -3173.23  -3216.38  -3216.65  -3245.88  -3250.28  -3269.69  -3269.78  -3321.98  -3326.33  -3387.63  -3389.47  -3393.91  -3441.7  -3441.9  -3447.03  -3494.67  -3548.54  -3555.81  -3568.21  -3585.46  -3585.51  -3618.9  -3618.96  -3629.87  -3631.71  -3635.93  -3700.5  -3716.18  -3716.81  -3777.3  -3779.94  -3789.65  -3790.23  -3827.94  -3832.88  -3835.33  -3851.89  -3856.35  -3921.97  -3926.48  -3957.72  -4029.27  -4029.31  -4056.86  -4060.8  -4139.8  -4146.52  -4166.37  -4179.24  -4183.16  -4323.72  -4334.15  -4388.11  -4389.61  -4390.03  -4450.38  -4546.2  -4561.25  -4564.35  -4569.85  -4614.77  -4634.23  -4642.67  -4696.49  -4792.36  -4813.95  -4835.77  -4888.84  -4961.39  -5064.84  -5205.83  -5211.6  -5242.15  -5303.15  -5377.65  -5402.24  -5447.77  -5512.9  -5573.91  -5582.6  -5648.4  -5704.87  -5718.54  -5858.92  -5915.25  -5980.5  -6086.9  -6248.44  -6312.75  -6374.95  -6470.82  -6543.84  -6567.28  -6608.12  -6670.34  -6743.17  -6772.76  -6868.31  -6889.93  -7344.11  -7405.06  -7479.52  -7549.65  -7664.13  -7689.9  -7725.45  -7807.3  -7811.48  -7876.45  -8527.66  -8591.9  -8654.08  -8756.38  -8851.94  -8872.65  -8945.68  -9009.23  -9800.56  -9861.83  -9943.55  -10012.7  -10176  -10254.7  -11161.7  -11234.6  -11298.1  -11587.2  -12617.6  -12696.2  -14181.2  
6  0  0.0388814   2  -2  -3.34813  -22.8404  -57.5004  -71.2016  -92.1665  -102.846  -139.942  -156.744  -164.97  -185.002  -215.588  -226.735  -232.106  -254.111  -264.38  -292.301  -312.773  -333.244  -341.626  -373.411  -373.606  -387.446  -401.277  -438.976  -442.982  -462.09  -462.853  -503.27  -508.749  -521.503  -527.95  -528.968  -570.804  -597.824  -599.312  -612.065  -667.398  -667.955  -673.048  -683.61  -691.283  -727.064  -732.677  -736.709  -785.378  -785.428  -801.758  -801.886  -847.321  -850.263  -850.806  -882.997  -886.794  -912.581  -918.654  -925.1  -966.22  -982.16  -1001.71  -1001.73  -1040.07  -1051.51  -1051.54  -1114.82  -1114.98  -1116.2  -1119.84  -1140.66  -1157.55  -1184.66  -1185.19  -1198.99  -1199  -1260.99  -1260.99  -1267.49  -1267.5  -1277.2  -1331.57  -1331.62  -1334.83  -1381.75  -1382.2  -1411.69  -1412.83  -1438.2  -1438.25  -1454.52  -1508.85  -1523.45  -1523.45  -1529.3  -1529.3  -1554.66  -1587.03  -1587.04  -1655.63  -1655.63  -1675.84  -1676.29  -1700.88  -1700.88  -1703.81  -1707.18  -1739.87  -1740.02  -1764.03  -1764.03  -1792.42  -1832.53  -1832.54  -1852.99  -1853  -1862.91  -1908.57  -1916.16  -1916.16  -1985.73  -2000.08  -2000.15  -2028.87  -2029.11  -2043.14  -2061.4  -2064.67  -2084.7  -2084.75  -2144.56  -2147.67  -2147.73  -2161.57  -2177.05  -2177.06  -2216.19  -2216.3  -2291.4  -2291.4  -2299.38  -2299.47  -2352.92  -2352.94  -2355.35  -2355.37  -2382.28  -2382.7  -2399.25  -2416.41  -2416.49  -2422.78  -2422.79  -2456.4  -2505.92  -2505.93  -2557.83  -2560.12  -2560.2  -2574.82  -2619.29  -2622.14  -2622.14  -2689.53  -2734.35  -2734.48  -2735.12  -2737.46  -2738.09  -2765.78  -2765.81  -2797.26  -2799.52  -2799.93  -2800.15  -2865.58  -2870.98  -2886.48  -2889.92  -2943.92  -2944  -2948.68  -2953.85  -2970.64  -2970.69  -3033.47  -3033.52  -3064.49  -3069.23  -3092.56  -3101.76  -3101.87  -3150.57  -3150.61  -3163.99  -3178.87  -3179.08  -3184.86  -3184.95  -3212.64  -3213.35  -3217.12  -3300.61  -3300.7  -3344.84  -3362.82  -3367.16  -3386.22  -3390.74  -3404.26  -3447.98  -3448.12  -3472.71  -3505.78  -3525.47  -3535.47  -3593.28  -3598.08  -3603.81  -3621.66  -3621.72  -3659.46  -3659.52  -3686.79  -3738.51  -3739.17  -3746.9  -3747.49  -3801.24  -3802.49  -3803.76  -3829.43  -3834.45  -3869.53  -3874.16  -3949.37  -3952.56  -3956.97  -4068.32  -4070.09  -4070.13  -4072.26  -4097.51  -4103.77  -4128.06  -4215.15  -4219.06  -4299.67  -4330.9  -4362.35  -4396.1  -4396.27  -4430.59  -4513.63  -4572.03  -4595.02  -4602.07  -4605.16  -4629.28  -4657.69  -4725.92  -4776.12  -4809.01  -4837.21  -4924.67  -4953.07  -5076.3  -5163.09  -5215.26  -5252.4  -5277.88  -5346.09  -5398.78  -5429.15  -5540.16  -5544.84  -5602.79  -5670.98  -5691.55  -5754.05  -5872.53  -5875.38  -6021.26  -6078.51  -6219.47  -6282.06  -6350.23  -6433.32  -6548.97  -6573.94  -6636.5  -6700.48  -6704.71  -6794.42  -6876.59  -6908.99  -7312.3  -7374.87  -7443.02  -7526.1  -7647.3  -7696.31  -7759.4  -7793.19  -7834.84  -7916.77  -8493.77  -8556.28  -8624.47  -8714.05  -8828.63  -8907.81  -8979.31  -9048.33  -9763.83  -9826.86  -9902.19  -9984.12  -10213.6  -10294  -11123  -11194.4  -11263.4  -11628.1  -12576.4  -12656.7  -14138.4  
7  0  0.0453616   1.68404  -1.68404  -4.48523  -20.5727  -56.4748  -73.5189  -92.7097  -107.495  -135.587  -155.664  -160.691  -184.265  -211.397  -231.065  -237.197  -252.087  -273.672  -295.712  -314.572  -321.143  -350.664  -366.233  -366.536  -385.147  -400.798  -433.842  -438.721  -469.443  -470.052  -492.496  -510.61  -524.238  -537.947  -537.977  -586.996  -594.217  -600.876  -602.433  -657.524  -658.763  -666.693  -689.067  -707.268  -711.596  -721.917  -723.924  -793.523  -793.638  -799.673  -799.74  -859  -859.031  -865.638  -869.281  -869.455  -929.899  -933.743  -944.167  -959.365  -987.491  -1003.77  -1003.8  -1017.32  -1039.51  -1039.53  -1104.12  -1104.54  -1118.46  -1135.28  -1137.5  -1141.14  -1168.28  -1168.64  -1211.54  -1211.54  -1262.05  -1262.05  -1277.31  -1277.32  -1303.57  -1339.82  -1339.83  -1359.06  -1359.5  -1361.12  -1410.46  -1433.1  -1434.01  -1464.24  -1480.73  -1481.13  -1509.5  -1509.5  -1526.96  -1530.91  -1530.91  -1571.34  -1571.35  -1646.18  -1646.19  -1676.35  -1679.76  -1702.12  -1702.57  -1716.29  -1716.29  -1717.29  -1717.4  -1777.81  -1777.81  -1823.73  -1849.39  -1849.4  -1853.09  -1853.1  -1894.2  -1923.17  -1923.17  -1939.85  -1953.06  -1972.37  -1972.44  -2010.5  -2055.39  -2055.57  -2067.73  -2067.79  -2092.42  -2095.74  -2111.92  -2128.92  -2132.44  -2132.49  -2178.76  -2178.77  -2195.02  -2195.13  -2290.99  -2291.08  -2308.89  -2308.89  -2349.88  -2350.3  -2373.44  -2373.44  -2385.27  -2385.31  -2388.54  -2388.62  -2435.48  -2436.01  -2436.02  -2492.62  -2531.94  -2531.94  -2557.08  -2557.16  -2581.69  -2594.05  -2611.04  -2628.82  -2628.82  -2651.94  -2697.26  -2704.79  -2705.06  -2715.32  -2716.05  -2776.59  -2779.64  -2797.28  -2797.31  -2835.49  -2835.9  -2848.9  -2851.2  -2852.35  -2856.41  -2921.37  -2926.65  -2945.68  -2945.76  -2990.96  -2991.01  -3052.18  -3052.23  -3056.36  -3061.09  -3126.76  -3126.86  -3133.71  -3141.54  -3141.71  -3179.76  -3184.3  -3186.78  -3186.81  -3196.92  -3197.01  -3205.11  -3254.45  -3302.32  -3331.81  -3331.9  -3361.76  -3383.2  -3387.77  -3403.94  -3408.27  -3450.82  -3454.58  -3454.7  -3463.28  -3482.99  -3515.28  -3555.73  -3560.49  -3577.63  -3658.08  -3658.14  -3673.43  -3700.36  -3700.42  -3704.43  -3705.01  -3760.92  -3761.6  -3769.94  -3825.36  -3827.72  -3831.2  -3836.28  -3887.68  -3892.47  -3941.3  -3983.49  -3987.82  -4055.37  -4061.29  -4080.05  -4084.01  -4090.15  -4111.18  -4111.22  -4251.35  -4255.23  -4275.69  -4327.88  -4336.76  -4402.85  -4402.87  -4411.29  -4481.4  -4529.56  -4616.18  -4620.27  -4643.17  -4646.25  -4681.32  -4738.58  -4755.84  -4825.99  -4838.92  -4945.03  -4960.79  -5088.03  -5120.62  -5188.44  -5252.78  -5293.48  -5315.02  -5395.59  -5410.87  -5507.37  -5567.5  -5631.84  -5678.52  -5694.05  -5789.91  -5830.08  -5892.13  -6062.3  -6070.39  -6190.57  -6251.54  -6326.01  -6396.17  -6530.95  -6604.11  -6658.08  -6665.06  -6739.59  -6816.42  -6863.53  -6949.95  -7280.56  -7344.85  -7407.02  -7502.89  -7604.98  -7728.57  -7775.16  -7793.58  -7862.83  -7957.44  -8459.95  -8520.84  -8595.35  -8672.06  -8805.6  -8943.07  -9013.1  -9087.98  -9727.16  -9792.13  -9861.26  -9955.88  -10251.3  -10333.6  -11084.4  -11154.3  -11229.2  -11669.2  -12535.4  -12617.6  -14095.9  
8  0  0.0518418   1.3473  -1.3473  -5.74454  -18.4027  -55.527  -75.9288  -92.9175  -112.552  -131.073  -154.875  -156.546  -184.483  -206.795  -236.296  -242.198  -249.236  -284.514  -298.45  -309.846  -316.812  -358.923  -358.974  -361.32  -375.23  -408.612  -428.589  -434.95  -476.619  -477.467  -482.773  -500.36  -538.821  -547.076  -549.279  -576.667  -602.968  -604.526  -606.719  -645.371  -649.643  -652.399  -695.139  -705.439  -711.408  -712.614  -723.628  -792.121  -792.29  -807.565  -807.603  -848.607  -852.409  -868.131  -868.149  -890.927  -936.846  -946.542  -949.229  -964.597  -994.834  -1006  -1006.17  -1009.25  -1027.65  -1027.68  -1091.62  -1094.04  -1098.4  -1113.34  -1152.53  -1152.78  -1159.09  -1162.71  -1224.16  -1224.17  -1259.28  -1259.28  -1291.35  -1291.36  -1330.21  -1336.66  -1337.09  -1348.66  -1348.66  -1383.01  -1387.74  -1453.69  -1454.73  -1455.49  -1490.6  -1495.45  -1495.46  -1499.53  -1507.24  -1532.9  -1532.9  -1555.94  -1555.94  -1637.05  -1637.09  -1649.21  -1652.62  -1695.13  -1695.22  -1728.51  -1728.92  -1731.93  -1731.97  -1791.83  -1791.83  -1846.92  -1846.93  -1855.3  -1873.18  -1873.18  -1920.67  -1925.76  -1930.59  -1930.59  -1944.93  -1945.02  -1971.4  -1978.14  -2050.85  -2050.91  -2079.55  -2082.12  -2082.28  -2096.55  -2117.26  -2117.31  -2123.78  -2127.13  -2174.2  -2174.31  -2181  -2181.01  -2282.92  -2283.01  -2317.7  -2318.13  -2326.46  -2326.46  -2361.01  -2361.09  -2392.76  -2392.76  -2416.74  -2416.78  -2449.84  -2449.85  -2471.98  -2529.11  -2544.37  -2554.26  -2554.34  -2558.29  -2558.29  -2614.62  -2630.54  -2635.82  -2635.82  -2647.52  -2660.04  -2672.42  -2672.6  -2696.33  -2697.03  -2756.17  -2759.35  -2811.6  -2815.04  -2829  -2829.02  -2837.23  -2842.24  -2871.78  -2872.2  -2894.44  -2899.89  -2947.7  -2947.78  -3011.34  -3011.39  -3048.52  -3053.25  -3071.12  -3071.18  -3104.43  -3104.57  -3147.22  -3151.81  -3152.15  -3152.25  -3175.13  -3209.36  -3209.45  -3223.27  -3223.29  -3246.51  -3260.07  -3295.83  -3319.53  -3363.3  -3363.38  -3380.42  -3385.04  -3421.06  -3429.01  -3440.79  -3445.32  -3449.65  -3461.5  -3461.6  -3495.18  -3518.43  -3523.18  -3552.08  -3660.4  -3662.23  -3662.82  -3694.73  -3694.78  -3737.67  -3741.57  -3741.63  -3783.42  -3784.11  -3833.19  -3838.37  -3849.56  -3851.77  -3906.42  -3911.37  -3933.51  -4013.43  -4014.74  -4019  -4019.08  -4052.59  -4092.08  -4096.04  -4152.55  -4152.59  -4251.77  -4287.82  -4291.69  -4311.41  -4325.1  -4392.39  -4409.73  -4409.92  -4449.55  -4487.37  -4603.36  -4645.58  -4684.54  -4687.62  -4701.3  -4705.19  -4786.16  -4840.89  -4843.36  -4937.27  -4997.19  -5078.44  -5100.05  -5161.71  -5227.76  -5284.55  -5334.83  -5392.19  -5393.39  -5470.18  -5594.91  -5660.96  -5665.75  -5717.71  -5787.91  -5826.09  -5909.17  -6062.55  -6103.62  -6161.72  -6221.26  -6302.19  -6359.39  -6513.2  -6615.95  -6634.34  -6693.85  -6774.88  -6838.78  -6850.75  -6991.19  -7248.91  -7314.9  -7371.62  -7480  -7562.95  -7757.42  -7760.91  -7827.92  -7891.34  -7998.44  -8426.18  -8485.64  -8566.66  -8630.44  -8782.86  -8978.44  -9047.12  -9128.13  -9690.58  -9757.55  -9820.86  -9927.97  -10289.2  -10373.7  -11045.9  -11114.5  -11195.5  -11710.7  -12494.5  -12578.9  -14053.7  
9  0  0.0583221   1  -1  -7.09858  -16.3708  -54.7107  -78.4479  -92.5764  -117.823  -127.132  -152.646  -153.768  -185.66  -202.466  -241.78  -245.428  -248.359  -294.329  -295.902  -305.91  -319.314  -351.582  -352.52  -365.395  -371.434  -415.795  -423.193  -433.061  -472.613  -484.403  -485.237  -491.525  -551.159  -556.111  -559.396  -563.101  -608.823  -610.188  -620.77  -629.812  -640.621  -641.94  -678.574  -701.18  -702.04  -722.151  -740.269  -788.668  -788.891  -817.786  -817.84  -832.143  -835.913  -877.479  -877.505  -912.875  -914.605  -962.944  -964.988  -972.627  -985.799  -1008.58  -1008.64  -1016.3  -1016.32  -1030.99  -1072.26  -1082.77  -1085.42  -1092.36  -1137.52  -1137.69  -1180.95  -1184.57  -1236.84  -1236.84  -1256.64  -1256.65  -1305.54  -1305.55  -1314.54  -1314.97  -1355.83  -1357.1  -1358.22  -1358.25  -1414.62  -1426.53  -1472.37  -1476.61  -1477.27  -1481.44  -1481.45  -1517.3  -1533.99  -1534.7  -1534.74  -1541.32  -1541.32  -1621.64  -1624.77  -1628.9  -1629.24  -1673.47  -1673.53  -1747.09  -1747.1  -1755.7  -1756.14  -1806.13  -1806.13  -1844.38  -1844.38  -1887.15  -1888.55  -1893.9  -1893.9  -1917.76  -1917.88  -1938.5  -1938.5  -1946.06  -1957.6  -2003.23  -2034.06  -2034.12  -2047.45  -2064.46  -2102.04  -2102.08  -2109.1  -2109.24  -2154.42  -2154.53  -2155.46  -2158.83  -2183.19  -2183.2  -2275.17  -2275.26  -2285.76  -2286.19  -2333.8  -2333.89  -2344.12  -2344.12  -2412  -2412  -2448.5  -2448.54  -2464.4  -2464.41  -2507.32  -2508.76  -2551.72  -2551.8  -2565.88  -2577.58  -2584.93  -2584.93  -2623.05  -2640.32  -2640.46  -2643.13  -2643.13  -2667.3  -2677.37  -2678.06  -2684.28  -2736.04  -2739.32  -2774.57  -2778.02  -2823.53  -2828.3  -2860.96  -2860.98  -2867.98  -2873.64  -2908.39  -2908.81  -2949.98  -2950.06  -3031.77  -3031.81  -3040.97  -3045.7  -3067.56  -3067.68  -3090.36  -3090.42  -3115  -3119.63  -3177.82  -3177.92  -3216.83  -3218.1  -3222.26  -3222.35  -3260.02  -3260.03  -3277.58  -3288.19  -3337.48  -3377.88  -3379.11  -3382.55  -3395.07  -3395.15  -3398.87  -3407.29  -3468.72  -3468.8  -3475.02  -3481.41  -3486.15  -3486.99  -3491.31  -3527.24  -3620.3  -3620.89  -3647.67  -3705.69  -3731.62  -3731.67  -3783.09  -3783.15  -3806  -3806.71  -3835.47  -3840.75  -3873.71  -3875.76  -3925.88  -3926.01  -3930.98  -3971.7  -3977.15  -4015.36  -4046.31  -4050.49  -4104.39  -4108.37  -4194.19  -4194.23  -4227.9  -4286.35  -4322.57  -4324.57  -4328.42  -4373.77  -4416.91  -4417.24  -4418.15  -4445.45  -4590.83  -4664.31  -4670.93  -4726.18  -4729.26  -4729.36  -4816.76  -4843.12  -4861.18  -4929.81  -5033.87  -5036.52  -5112.34  -5135.07  -5202.7  -5254.78  -5375.2  -5376.46  -5390.09  -5433.28  -5622.42  -5653.27  -5690.04  -5742.09  -5746.02  -5862.58  -5926.49  -6054.98  -6132.93  -6145.22  -6191.28  -6278.66  -6323.07  -6495.73  -6574.1  -6664.62  -6722.95  -6810.51  -6838.24  -6861.56  -7032.72  -7217.35  -7284.92  -7336.92  -7457.42  -7521.21  -7739.96  -7793.34  -7862.33  -7920.45  -8039.76  -8392.46  -8450.74  -8538.29  -8589.22  -8760.4  -9013.89  -9081.41  -9168.72  -9654.1  -9723.04  -9781.07  -9900.38  -10327.2  -10414.1  -11007.6  -11075  -11162.3  -11752.4  -12453.8  -12540.6  -14011.7  
10  0  0.0648023   0.652704  -0.652704  -8.51319  -14.5056  -54.0754  -81.0928  -91.474  -122.947  -124.204  -149.28  -152.189  -187.601  -198.585  -243.726  -247.346  -252.954  -283.608  -307.561  -309.201  -321.692  -344.096  -345.769  -356.778  -382.371  -417.608  -417.846  -436.604  -464.508  -481.352  -492.963  -493.842  -542.399  -561.536  -564.951  -578.952  -611.663  -615.367  -615.68  -631.814  -632.741  -637.845  -662.165  -691.306  -691.979  -739.152  -757.187  -785.022  -785.404  -816.258  -819.924  -828.384  -828.449  -887.167  -887.197  -892.642  -935.105  -950.695  -979.162  -980.779  -1003.18  -1003.28  -1007.25  -1013.49  -1013.9  -1050.89  -1053.13  -1066.94  -1074.56  -1076.02  -1123.37  -1123.5  -1203.1  -1206.7  -1249.23  -1249.23  -1254.64  -1254.65  -1292.72  -1293.13  -1319.6  -1319.61  -1328.94  -1368.63  -1368.64  -1384.33  -1399.64  -1441.79  -1445.49  -1467.45  -1467.46  -1498.75  -1499.33  -1525.33  -1525.33  -1538.46  -1538.47  -1544.33  -1561.13  -1595.13  -1598.59  -1620.02  -1620.05  -1652.47  -1652.52  -1762.67  -1762.68  -1782.77  -1783.21  -1820.74  -1820.74  -1842.12  -1842.12  -1856.7  -1890.86  -1891.01  -1914.27  -1914.7  -1914.71  -1919.28  -1947.06  -1947.06  -1989.71  -2015.63  -2017.38  -2017.44  -2032.64  -2035.33  -2086.64  -2086.68  -2135.38  -2135.49  -2136.33  -2136.45  -2185.74  -2185.75  -2187.44  -2190.82  -2254.04  -2254.47  -2267.76  -2267.85  -2306.93  -2307.01  -2361.89  -2361.89  -2431.05  -2431.05  -2470.54  -2479.12  -2479.13  -2481.24  -2481.27  -2540.81  -2545.81  -2549.44  -2549.52  -2586.31  -2602.92  -2608.49  -2608.61  -2611.87  -2611.87  -2650.75  -2650.76  -2658.46  -2659.13  -2704.34  -2716.25  -2719.61  -2721.32  -2737.82  -2741.27  -2809.91  -2814.36  -2842.15  -2848.13  -2893.17  -2893.18  -2945.3  -2945.73  -2952.52  -2952.61  -3030.92  -3031.03  -3033.72  -3038.46  -3052.23  -3052.27  -3083.08  -3087.75  -3109.94  -3110  -3176.4  -3203.57  -3203.66  -3235.8  -3235.9  -3235.91  -3258.8  -3297.05  -3297.06  -3330.15  -3337.44  -3357.22  -3375.61  -3379.41  -3380.32  -3385.68  -3427.12  -3427.2  -3444.62  -3449.38  -3454.72  -3476.24  -3476.3  -3503.24  -3528.93  -3533.24  -3578.65  -3579.24  -3635.24  -3674.01  -3768.76  -3768.82  -3824.91  -3824.97  -3828.69  -3829.41  -3838  -3843.41  -3897.69  -3899.6  -3918.81  -3930.21  -3935.5  -3946.18  -3951.41  -3978.45  -4078.16  -4082.28  -4117  -4121.01  -4204.06  -4236.1  -4236.14  -4261.63  -4320.3  -4355.23  -4361.59  -4365.43  -4387.38  -4403.81  -4424.38  -4424.84  -4578.57  -4627.59  -4696.31  -4753.85  -4768.1  -4771.18  -4845.61  -4847.44  -4879.65  -4922.64  -4994.88  -5070.83  -5108.54  -5124.91  -5177.45  -5225.86  -5357.85  -5387.72  -5396.68  -5418.37  -5641.06  -5650.04  -5704.4  -5718.94  -5767.31  -5899.37  -5944.11  -6047.69  -6104.16  -6161.63  -6187.09  -6255.19  -6287.39  -6478.55  -6532.53  -6694.92  -6752.38  -6826  -6846.32  -6884.86  -7074.53  -7185.89  -7254.75  -7303.07  -7435.14  -7479.77  -7722.77  -7825.89  -7896.71  -7950.28  -8081.38  -8358.77  -8416.18  -8510.1  -8548.54  -8738.23  -9049.42  -9116.03  -9209.73  -9617.73  -9688.5  -9741.99  -9873.09  -10365.4  -10455  -10969.2  -11035.8  -11129.4  -11794.3  -12413.2  -12502.6  -13970  
11  0  0.0712825   0.31596  -0.31596  -9.94689  -12.8274  -53.6665  -83.876  -89.5129  -122.498  -127.088  -147.215  -150.196  -189.99  -195.233  -242.273  -252.838  -258.067  -272.575  -313.588  -318.471  -323.545  -337.12  -339.135  -350.258  -393.203  -412.103  -415.066  -444.574  -457.505  -474.677  -500.914  -501.518  -525.695  -570.881  -573.441  -595.497  -596.845  -618.716  -619.011  -625.356  -625.804  -646.04  -655.23  -681.8  -682.371  -756.423  -774.108  -780.617  -781.693  -801.967  -805.286  -838.917  -838.97  -870.958  -897.219  -897.251  -929.041  -957.609  -991.617  -991.715  -995.051  -996.233  -1017.39  -1018.03  -1029.52  -1030.29  -1046.56  -1063.7  -1064.21  -1075.56  -1110.24  -1110.33  -1225.51  -1229.11  -1251.55  -1251.55  -1263.05  -1263.06  -1271.25  -1271.64  -1302.33  -1333.35  -1333.36  -1373.03  -1380.05  -1380.05  -1411.8  -1418.89  -1453.49  -1453.49  -1469.22  -1511.02  -1511.02  -1521.1  -1521.63  -1541.25  -1541.26  -1568.67  -1571.65  -1572.16  -1588.51  -1610.85  -1610.87  -1632.73  -1632.76  -1778.24  -1778.24  -1810.13  -1810.57  -1825.12  -1835.3  -1835.3  -1840.54  -1840.55  -1864.2  -1864.42  -1882.78  -1934.98  -1934.98  -1951.67  -1956.87  -1956.87  -1984.09  -2000.79  -2000.85  -2001.13  -2022.09  -2067.71  -2070.91  -2070.95  -2117.32  -2117.43  -2163.82  -2163.92  -2188.55  -2188.56  -2219.72  -2222.59  -2223.03  -2223.11  -2260.6  -2260.68  -2280.42  -2280.5  -2379.77  -2379.77  -2434.04  -2449.77  -2449.77  -2496.03  -2496.03  -2504.31  -2513.05  -2513.09  -2547.41  -2547.49  -2549.84  -2576.94  -2577.05  -2583.14  -2639.04  -2639.06  -2639.56  -2640.22  -2640.26  -2658.73  -2658.73  -2696.82  -2700.22  -2701.35  -2704.79  -2741.65  -2758.63  -2795.75  -2799.74  -2817.56  -2824.01  -2925.63  -2925.64  -2955.31  -2955.41  -2982.51  -2982.94  -2994.54  -2994.64  -3026.77  -3031.51  -3051.47  -3056.17  -3072.71  -3072.75  -3129.87  -3129.94  -3134.98  -3194.5  -3228.78  -3228.87  -3250.57  -3250.67  -3296.04  -3301.05  -3315.84  -3334.34  -3334.35  -3364.18  -3372.38  -3373.59  -3378.34  -3408.13  -3412.9  -3421.61  -3434.07  -3459.45  -3459.53  -3480.24  -3484.05  -3484.1  -3537.28  -3537.87  -3571.14  -3575.45  -3623.05  -3642.67  -3806.16  -3806.21  -3840.78  -3846.33  -3851.49  -3852.22  -3867.03  -3867.09  -3888.96  -3894.12  -3911.91  -3921.34  -3923.15  -3941.85  -3967.47  -3972.79  -4110.27  -4114.3  -4129.95  -4134.01  -4180.24  -4237.27  -4278.28  -4278.32  -4318.28  -4336.16  -4357.78  -4362.52  -4398.89  -4402.72  -4432.14  -4432.71  -4566.6  -4591.16  -4721.72  -4778.72  -4810.3  -4813.37  -4848.33  -4877.59  -4899.33  -4915.78  -4953.52  -5082.11  -5108.07  -5137.76  -5151.88  -5197.93  -5340.74  -5360.41  -5385.63  -5460.55  -5629.13  -5663.06  -5677.76  -5747.52  -5793.52  -5936.42  -5962.05  -6040.67  -6075.43  -6132.35  -6229.25  -6231.2  -6252.92  -6461.64  -6491.24  -6725.25  -6782.18  -6814.05  -6881.99  -6908.99  -7116.62  -7154.54  -7224.26  -7270.22  -7413.13  -7438.65  -7705.85  -7858.55  -7930.92  -7980.94  -8123.31  -8325.11  -8381.99  -8481.78  -8508.69  -8716.33  -9085.04  -9151.01  -9251.13  -9581.48  -9653.79  -9703.74  -9846.1  -10403.8  -10496.1  -10931  -10996.9  -11097  -11836.6  -12372.8  -12465.1  -13928.6  
12  0  0.0777628   0  -0  -11.351  -11.351  -53.5231  -86.8034  -86.8034  -121.973  -128.723  -147.9  -147.9  -192.479  -192.479  -241.736  -256.866  -263.23  -263.23  -318.438  -318.438  -331.388  -332.676  -332.676  -347.52  -399.852  -410.572  -410.572  -451.832  -451.832  -471.368  -509  -509  -509.821  -578.659  -581.443  -581.443  -612  -612  -614.125  -629.646  -629.646  -631.534  -672.687  -672.687  -673.451  -772.313  -774.947  -774.947  -791.267  -791.267  -794.376  -849.495  -849.585  -849.585  -907.646  -907.646  -907.699  -980.341  -980.341  -980.454  -1007.65  -1008.64  -1008.64  -1025.2  -1025.2  -1026.5  -1052.41  -1052.84  -1052.84  -1098.24  -1098.24  -1098.33  -1248.02  -1248.28  -1248.28  -1251.7  -1251.7  -1251.95  -1275.99  -1275.99  -1276.02  -1346.68  -1346.69  -1346.69  -1392.57  -1392.57  -1392.57  -1439.54  -1439.54  -1439.54  -1496.93  -1496.93  -1496.94  -1542.21  -1542.56  -1542.56  -1545.84  -1545.84  -1546.21  -1599.24  -1599.28  -1599.28  -1616.16  -1616.16  -1616.18  -1793.82  -1793.82  -1793.82  -1837.6  -1837.6  -1837.88  -1837.98  -1838.27  -1838.27  -1851.61  -1851.61  -1851.62  -1952.81  -1952.82  -1952.82  -1969.82  -1969.82  -1969.83  -1984.35  -1984.35  -1984.4  -2054.75  -2054.75  -2054.79  -2100.35  -2100.36  -2100.47  -2191.36  -2191.42  -2191.42  -2191.82  -2191.82  -2191.88  -2252.28  -2252.29  -2252.37  -2255.69  -2255.69  -2255.78  -2397.76  -2397.76  -2397.81  -2468.05  -2468.05  -2468.09  -2513.51  -2513.51  -2513.63  -2545.62  -2545.65  -2545.66  -2545.71  -2545.75  -2545.78  -2620.69  -2620.73  -2621.35  -2665.06  -2665.06  -2665.15  -2668.5  -2668.5  -2668.59  -2677.77  -2677.83  -2681.2  -2779.16  -2779.24  -2782.8  -2796.1  -2796.21  -2802.92  -2958.33  -2958.34  -2958.37  -2958.42  -2958.45  -2958.51  -3019.93  -3020.01  -3020.35  -3020.44  -3024.58  -3025.18  -3093.21  -3093.25  -3093.82  -3150.19  -3150.25  -3153.37  -3251.56  -3251.63  -3254.92  -3268.46  -3268.57  -3274.74  -3342.8  -3343.57  -3371.84  -3371.91  -3371.91  -3371.92  -3376.63  -3376.68  -3412.98  -3414.89  -3458.34  -3464.09  -3491.9  -3491.93  -3492.35  -3492.36  -3496.18  -3496.78  -3609.68  -3613.1  -3613.62  -3617.93  -3843.8  -3843.81  -3843.87  -3847.96  -3849.53  -3853.01  -3874.41  -3875.13  -3905.32  -3905.55  -3909.43  -3909.49  -3944.55  -3946.32  -3989.86  -3995.2  -4141.22  -4144.64  -4144.85  -4149.08  -4156.44  -4213.29  -4314.49  -4316.64  -4320.74  -4320.78  -4321.32  -4331.53  -4436.47  -4440.18  -4440.3  -4440.86  -4554.73  -4555.17  -4747.15  -4803.95  -4851.29  -4852.76  -4855.83  -4905.31  -4909.23  -4912.43  -4922.13  -5055.8  -5125.87  -5145.58  -5150.89  -5171.11  -5322.47  -5325.88  -5383.81  -5503  -5617.48  -5622  -5705.6  -5775.65  -5820.84  -5973.5  -5980.56  -6033.93  -6046.7  -6103.44  -6204.78  -6221.57  -6271.68  -6445.01  -6450.24  -6755.6  -6802.36  -6812.37  -6916.49  -6934.97  -7123.31  -7159  -7193.32  -7238.47  -7391.13  -7398.1  -7689.22  -7891.33  -7964.86  -8012.56  -8165.54  -8291.46  -8348.19  -8452.28  -8470.7  -8694.71  -9120.72  -9186.36  -9292.9  -9545.34  -9618.81  -9666.46  -9819.42  -10442.4  -10537.7  -10892.9  -10958.4  -11064.9  -11879.1  -12332.7  -12427.9  -13887.4  
13  0.00561204  0.0745226   0.285575  -0.285575  -10.0873  -12.6712  -53.6731  -83.6194  -89.8729  -122.411  -127.389  -145.405  -151.69  -190.415  -194.755  -242.324  -249.672  -265.432  -268.377  -311.833  -323.047  -326.93  -327.021  -342.143  -351.156  -395.456  -405.278  -419.65  -447.718  -453.203  -475.817  -493.177  -517.207  -517.745  -564.521  -587.582  -588.662  -603.156  -604.924  -615.096  -629.086  -639.257  -639.284  -663.994  -664.481  -690.95  -761.511  -764.624  -784.966  -786.236  -792.548  -810.215  -828.435  -860.167  -860.237  -886.564  -918.453  -918.492  -968.863  -969.011  -987.44  -1003.39  -1004.76  -1016.31  -1016.63  -1037.46  -1038.45  -1041.81  -1042.21  -1075.56  -1087.42  -1087.46  -1121.26  -1228.67  -1228.97  -1248.58  -1248.61  -1250.01  -1271.14  -1274.68  -1289.17  -1289.21  -1320.63  -1359.55  -1359.56  -1366.52  -1406.23  -1406.24  -1425.61  -1425.61  -1467.56  -1483.17  -1483.19  -1516.52  -1520.02  -1524.91  -1547.42  -1547.42  -1567.1  -1567.56  -1583.07  -1583.1  -1604.95  -1604.96  -1627.18  -1644.12  -1762.79  -1809.41  -1809.41  -1811.48  -1812.06  -1820.85  -1836.55  -1836.55  -1864.71  -1864.99  -1868.22  -1868.39  -1921.82  -1938.83  -1966.11  -1966.11  -1968  -1968  -1988  -1988  -2017.35  -2038.12  -2038.12  -2084.53  -2084.53  -2087.73  -2133.39  -2160.47  -2160.91  -2194.9  -2194.91  -2219.6  -2219.68  -2227.86  -2227.87  -2247.72  -2247.72  -2285.22  -2288.64  -2361.8  -2415.86  -2415.91  -2432.11  -2477.58  -2485.85  -2485.89  -2514.62  -2514.69  -2532.08  -2532.2  -2544.23  -2544.23  -2578.62  -2578.66  -2601.83  -2601.87  -2629.14  -2632.57  -2659.09  -2659.15  -2659.21  -2675.13  -2675.22  -2694.79  -2694.88  -2719.04  -2758.03  -2758.12  -2779.84  -2779.95  -2820.63  -2840.72  -2922.46  -2922.5  -2961.6  -2961.68  -2989.11  -2989.19  -2991.42  -2991.48  -3013.85  -3013.93  -3052.37  -3062.34  -3062.93  -3109.37  -3113.73  -3114.34  -3170.89  -3174.05  -3210.76  -3227.7  -3269.79  -3273.48  -3291.57  -3297.5  -3321.52  -3322.29  -3335.89  -3335.97  -3370.42  -3370.43  -3391.42  -3393.36  -3414.43  -3414.47  -3437.59  -3443.32  -3451.08  -3451.51  -3500.44  -3504.8  -3525.09  -3529.41  -3580.4  -3584.75  -3600.02  -3604.48  -3803  -3803.07  -3829.33  -3847.06  -3851.13  -3869.32  -3873.48  -3887.33  -3890.81  -3897.44  -3899.33  -3900.53  -3903.2  -3949.43  -3967.27  -4013.4  -4099.07  -4103.31  -4132.66  -4156.2  -4175.89  -4189.69  -4275.64  -4279.9  -4288.59  -4310.26  -4319.3  -4319.82  -4394.43  -4394.55  -4444.81  -4478.64  -4519.02  -4543.58  -4772.59  -4805.62  -4810.06  -4829.58  -4856.23  -4868.28  -4905.95  -4928.45  -4950.19  -5029.61  -5099.38  -5145.43  -5158.93  -5188.61  -5288.23  -5307.91  -5338.05  -5511.4  -5576.64  -5610.56  -5733.55  -5803.3  -5849.31  -5988.17  -5992.21  -6017.84  -6017.99  -6074.92  -6173.78  -6195.49  -6285.03  -6404.22  -6433.82  -6756.62  -6785.96  -6842.89  -6942.7  -6969.69  -7092.19  -7161.91  -7177.33  -7207.87  -7350.78  -7376.3  -7643.51  -7924.19  -7996.56  -8046.57  -8188.94  -8257.83  -8314.72  -8414.51  -8441.41  -8649.06  -9155.59  -9221.56  -9321.68  -9509.28  -9581.6  -9631.55  -9773.91  -10479.3  -10571.6  -10853.9  -10919.8  -11019.9  -11917  -12290.8  -12383  -13841.6  
14  0.0112241  0.0712825   0.532089  -0.532089  -9.04427  -13.8503  -54.122  -80.2784  -93.0705  -123.56  -124.443  -142.792  -157.034  -189.208  -196.599  -239.603  -244.116  -270.885  -273.421  -304.034  -319.459  -321.571  -330.101  -348.445  -361.589  -388.462  -399.424  -429.908  -446.149  -450.6  -477.151  -486.165  -525.527  -526.072  -548.929  -590.171  -592.601  -598.315  -598.632  -601.38  -642.741  -648.499  -652.926  -656.051  -656.519  -709.239  -747.77  -751.405  -782.3  -782.855  -807.605  -810.438  -828.293  -865.742  -870.839  -870.923  -929.631  -929.675  -957.253  -957.668  -967.059  -984.219  -1020.87  -1020.87  -1026.82  -1030.01  -1030.22  -1054.75  -1055.98  -1077.76  -1077.79  -1098.76  -1144.54  -1208.07  -1208.26  -1224.26  -1247.26  -1247.26  -1294.23  -1294.85  -1297.57  -1302.61  -1302.84  -1340.75  -1371.98  -1371.99  -1411.69  -1411.69  -1421  -1421.01  -1469.73  -1469.77  -1490.89  -1494.39  -1495.85  -1550.96  -1550.97  -1553.17  -1564.55  -1564.57  -1590.27  -1590.72  -1597  -1597  -1655.38  -1672.34  -1732.04  -1785.02  -1786.3  -1790.82  -1824.99  -1824.99  -1835.37  -1835.37  -1882.92  -1882.93  -1891.1  -1894.35  -1894.79  -1908.11  -1951.76  -1951.76  -1976.97  -1976.98  -2009.31  -2009.32  -2021.04  -2021.04  -2050.56  -2069.8  -2069.81  -2120.94  -2129.81  -2130.25  -2166.59  -2198.36  -2198.36  -2202.3  -2202.3  -2241.61  -2241.62  -2247.88  -2247.95  -2318.36  -2321.79  -2326.12  -2396.43  -2434.08  -2434.13  -2441.92  -2483.89  -2483.96  -2503.21  -2503.25  -2542.83  -2542.84  -2551.98  -2552.1  -2582.98  -2583.03  -2593.49  -2596.92  -2611.79  -2611.83  -2640.8  -2640.86  -2684  -2684.09  -2697.35  -2722.87  -2722.95  -2734.47  -2734.56  -2757.15  -2766.71  -2766.82  -2858.74  -2878.81  -2886.86  -2886.9  -2958.37  -2958.46  -2965.04  -2965.11  -3007.92  -3007.99  -3011.77  -3024.66  -3024.72  -3068.77  -3100.38  -3100.97  -3134.26  -3134.89  -3170.16  -3187.11  -3191.96  -3195.08  -3285.59  -3289.7  -3300.2  -3300.29  -3300.37  -3301.13  -3317.81  -3323.31  -3368.91  -3369.14  -3369.71  -3371.53  -3410.5  -3410.93  -3417.95  -3423.58  -3452.49  -3452.54  -3509.11  -3513.46  -3549.94  -3554.38  -3558.26  -3562.56  -3588.72  -3593.12  -3762.47  -3762.53  -3783.8  -3833.62  -3837.79  -3850.51  -3854.44  -3855.01  -3893.52  -3897.29  -3903.94  -3920.58  -3925.41  -3928.88  -3989.56  -4038.05  -4053.57  -4057.81  -4108.89  -4166.47  -4170.03  -4208.87  -4235.05  -4239.29  -4260.08  -4292.24  -4318.13  -4318.51  -4348.95  -4349.07  -4453.43  -4483.42  -4516.7  -4532.45  -4760.2  -4764.57  -4798.04  -4827.61  -4855.58  -4859.96  -4899.74  -4949.16  -4981.37  -5003.52  -5072.44  -5120.86  -5172.55  -5226.62  -5252.84  -5291.67  -5292.57  -5520.08  -5536.07  -5599.41  -5761.62  -5830.52  -5878.88  -5942.69  -5989.3  -6010.94  -6046.78  -6055.68  -6140.34  -6172.53  -6298.66  -6363.7  -6417.69  -6711.16  -6816.35  -6873.8  -6967.74  -7006.27  -7061.18  -7130.05  -7178.37  -7195.94  -7310.44  -7355.08  -7598.07  -7957.16  -8027.97  -8081.54  -8212.64  -8224.22  -8281.63  -8375.56  -8414  -8603.68  -9190.54  -9257.14  -9350.84  -9473.33  -9544.1  -9597.6  -9728.7  -10516.4  -10605.9  -10815  -10881.5  -10975.2  -11955.1  -12249.1  -12338.6  -13796.1  
15  0.0168361  0.0680424   0.732051  -0.732051  -8.2277  -14.8331  -54.8327  -77.0807  -96.3603  -120.922  -125.207  -140.126  -162.526  -189.19  -197.924  -229.793  -247.007  -276.519  -278.104  -296.605  -313.469  -316.023  -336.098  -354.06  -374.423  -381.003  -393.16  -435.181  -447.629  -451.187  -461.83  -498.044  -533.501  -534.052  -534.526  -579.234  -586.057  -589.185  -603.493  -604.348  -647.165  -647.651  -655.224  -660.092  -670.486  -727.815  -733.575  -737.433  -780.458  -780.91  -787.145  -828.879  -845.199  -846.692  -881.545  -881.652  -941.117  -941.174  -943.847  -946.391  -948.885  -963.978  -1014.67  -1014.8  -1029.01  -1029.02  -1050.37  -1068.84  -1068.94  -1072.63  -1073.82  -1122.26  -1168.09  -1187.69  -1187.71  -1198.94  -1246.24  -1246.24  -1269.35  -1314.91  -1315.25  -1315.29  -1318.84  -1322.04  -1384.1  -1384.11  -1397.81  -1397.81  -1436.76  -1436.77  -1456.4  -1456.56  -1465.79  -1469.17  -1524.41  -1544.73  -1544.76  -1555.4  -1555.4  -1581.69  -1590.39  -1590.4  -1613.79  -1614.25  -1683.87  -1700.84  -1701.55  -1757.24  -1760.82  -1762.66  -1834.28  -1834.28  -1840.77  -1840.77  -1860.66  -1877.67  -1899.53  -1899.53  -1922.72  -1923.17  -1935.64  -1935.64  -1987.3  -1987.3  -2003.65  -2003.65  -2031.86  -2031.87  -2056.06  -2056.07  -2084.06  -2099.42  -2099.86  -2154.42  -2176.92  -2176.92  -2200.06  -2202.01  -2202.01  -2236  -2236  -2276.43  -2276.5  -2290.71  -2351.79  -2355.22  -2361.03  -2406.53  -2452.4  -2452.45  -2453.44  -2453.5  -2520.24  -2520.28  -2541.97  -2541.97  -2558.12  -2561.55  -2564.17  -2564.22  -2572.61  -2572.72  -2622.87  -2622.93  -2645.24  -2645.28  -2693.13  -2693.22  -2710.37  -2710.46  -2735.77  -2751.28  -2751.37  -2754.82  -2754.92  -2795.54  -2851.53  -2851.57  -2897.12  -2917.16  -2927.93  -2928.01  -2968.59  -2968.66  -2971.43  -3002.44  -3002.51  -3028.45  -3058.17  -3058.22  -3129.84  -3138.7  -3139.3  -3146.79  -3154.82  -3155.46  -3213.4  -3216.44  -3264.81  -3264.89  -3279.31  -3280.07  -3300.85  -3305.26  -3345.28  -3347.07  -3349.27  -3350.48  -3368.27  -3368.27  -3370.2  -3370.63  -3399.29  -3404.79  -3490.83  -3490.87  -3518.06  -3519.72  -3522.41  -3524.24  -3577.75  -3582.13  -3591.72  -3596  -3722.21  -3722.27  -3738.55  -3798.19  -3802.39  -3809.76  -3854.1  -3857.79  -3858.72  -3888.23  -3891.8  -3943.83  -3963.76  -3967.22  -4008.34  -4011.53  -4012.59  -4063.68  -4085.15  -4143.61  -4184.11  -4194.71  -4198.95  -4231.04  -4242.19  -4275.42  -4303.75  -4303.88  -4317.22  -4317.5  -4448.1  -4462.32  -4521.59  -4555.03  -4715.05  -4719.35  -4787.24  -4823.52  -4863.97  -4881.94  -4893.8  -4969.34  -4977.55  -5013.77  -5045.18  -5097.27  -5186.45  -5217.7  -5247.36  -5264.91  -5275.77  -5495.77  -5529.03  -5588.52  -5789.79  -5857.4  -5897.49  -5909.44  -5960.64  -6019  -6029.94  -6093.83  -6106.37  -6150.79  -6312.56  -6323.46  -6401.83  -6665.97  -6846.75  -6905.08  -6992.64  -7030.29  -7043.67  -7097.86  -7149.87  -7214.84  -7270.37  -7334.17  -7552.91  -7990.25  -8059.23  -8117.34  -8190.63  -8236.65  -8248.92  -8336.46  -8387.41  -8558.59  -9225.56  -9293.07  -9380.38  -9437.51  -9506.45  -9564.48  -9683.79  -10553.7  -10640.6  -10776.2  -10843.6  -10930.9  -11993.5  -12207.6  -12294.4  -13750.8  
16  0.0224482  0.0648023   0.879385  -0.879385  -7.64171  -15.5716  -55.6889  -74.3298  -99.6484  -117.322  -127.194  -137.47  -167.074  -190.88  -198.764  -220.574  -250.617  -281.183  -282.108  -291.355  -307.589  -310.642  -342.467  -359.992  -373.517  -386.349  -388.271  -435.441  -443.832  -448.205  -462.498  -510.808  -518.575  -542.47  -543.096  -565.782  -577.438  -579.161  -610.144  -610.821  -639.922  -640.361  -666.889  -671.407  -688.856  -719.466  -723.453  -746.676  -766.686  -779.533  -779.713  -824.935  -847.631  -865.365  -892.293  -892.441  -925.144  -934.815  -936.238  -944.268  -953.063  -953.122  -1002.64  -1002.75  -1033.49  -1033.5  -1061.54  -1061.56  -1074.16  -1090.63  -1091.95  -1146.06  -1167.08  -1167.64  -1174.24  -1191.92  -1244.12  -1245.51  -1245.53  -1290.03  -1328.99  -1329.03  -1342.05  -1345.58  -1383.94  -1383.95  -1396.06  -1396.07  -1439.03  -1441.6  -1445.31  -1446.29  -1453.38  -1453.39  -1525.83  -1525.85  -1553.25  -1558.99  -1558.99  -1584.75  -1584.75  -1610.47  -1637.59  -1638.06  -1671.35  -1712.63  -1727.92  -1729.62  -1735.62  -1736.59  -1830.5  -1833.66  -1833.66  -1847.5  -1856.37  -1856.37  -1916.4  -1916.4  -1919.62  -1919.62  -1951.46  -1951.9  -1986.07  -1986.07  -1997.71  -1997.71  -2043.16  -2043.16  -2055.06  -2055.06  -2069.31  -2069.75  -2117.82  -2151.88  -2151.89  -2188.17  -2205.56  -2205.56  -2231.02  -2231.03  -2233.81  -2255.57  -2305.25  -2305.32  -2325.9  -2371.42  -2385.49  -2388.92  -2423.25  -2423.31  -2470.83  -2470.88  -2523.02  -2526.45  -2536.91  -2536.95  -2541.49  -2541.49  -2545.4  -2545.45  -2594.14  -2594.26  -2605.27  -2605.33  -2678.95  -2678.99  -2686.34  -2686.44  -2702.56  -2702.65  -2743.56  -2743.66  -2774.46  -2780  -2780.09  -2816.46  -2816.5  -2834.2  -2897.76  -2897.85  -2931.37  -2935.78  -2955.8  -2972.07  -2972.13  -2988.39  -2997.58  -2997.64  -3089.78  -3091.94  -3092  -3106.74  -3175.41  -3176.07  -3177.31  -3177.9  -3229.68  -3229.76  -3235.17  -3238.12  -3258.37  -3259.11  -3316.18  -3320.81  -3324.56  -3326.93  -3330.18  -3330.61  -3367.56  -3367.56  -3373.39  -3378.41  -3381.51  -3386.84  -3489.8  -3494.39  -3527.29  -3529.44  -3529.48  -3531.64  -3567.08  -3571.45  -3625.46  -3629.71  -3682.21  -3682.26  -3693.57  -3763.05  -3764.79  -3767.27  -3813.78  -3857.69  -3860.9  -3883.72  -3886.85  -3963.39  -3967.19  -3967.64  -4002.39  -4005.84  -4033.31  -4061.44  -4090.16  -4121.09  -4154.65  -4158.88  -4198.48  -4202.08  -4258.82  -4258.95  -4259.24  -4275.81  -4316.59  -4316.77  -4413.06  -4471.5  -4511.02  -4593.64  -4670.16  -4674.41  -4747.14  -4849.04  -4868.26  -4888.15  -4908.64  -4951.68  -4989.6  -5017.74  -5046.8  -5074.54  -5182.85  -5200.63  -5202.43  -5260.17  -5303.47  -5455.76  -5538.26  -5577.92  -5818.07  -5852.56  -5884.11  -5932  -5940.85  -5991.55  -6049.23  -6072.48  -6129.68  -6132.29  -6283.49  -6326.75  -6386.26  -6621.05  -6877.19  -6936.69  -6999.49  -7017.72  -7065.49  -7081.6  -7122.21  -7230.6  -7234.02  -7313.57  -7508.03  -8023.45  -8090.45  -8153.85  -8157.08  -8216.54  -8260.96  -8297.56  -8361.35  -8513.78  -9260.67  -9329.33  -9401.79  -9410.34  -9468.76  -9532.08  -9639.19  -10591.1  -10675.6  -10737.5  -10806  -10887  -12032.2  -12166.3  -12250.7  -13705.8  
17  0.0280602  0.0615622   0.969616  -0.969616  -7.28907  -16.0296  -56.4486  -72.3889  -102.627  -114.112  -129.357  -134.925  -169.855  -194.439  -199.212  -212.483  -254.079  -279.841  -287.343  -291.6  -302.176  -305.915  -348.796  -366.185  -366.48  -379.994  -402.037  -430.864  -434.956  -444.896  -475.641  -503.894  -524.046  -551.031  -551.686  -551.926  -568.735  -569.897  -616.54  -617.063  -633.079  -633.577  -679.275  -683.597  -705.644  -707.789  -709.736  -746.756  -765.817  -778.861  -779.045  -804.951  -866.665  -884.271  -903.094  -903.332  -905.501  -921.362  -924.998  -926.886  -965.184  -965.251  -990.168  -990.258  -1038.07  -1038.08  -1055.34  -1055.35  -1098.14  -1109.34  -1110.8  -1145.52  -1147.87  -1151.07  -1170.15  -1216.03  -1219.19  -1245.08  -1245.08  -1265.09  -1342.66  -1342.67  -1366.03  -1369.57  -1370.13  -1370.13  -1407.97  -1407.99  -1414.81  -1418.28  -1432.27  -1432.35  -1470.7  -1470.71  -1507.04  -1507.06  -1562.3  -1562.3  -1580.34  -1580.34  -1582.37  -1639.51  -1641.41  -1661.68  -1662.18  -1698.31  -1710.69  -1711.38  -1741.68  -1758.68  -1800.62  -1817.62  -1833.26  -1833.26  -1872.08  -1872.08  -1903.69  -1903.69  -1933.54  -1933.54  -1968.46  -1968.46  -1980.47  -1980.91  -2008.4  -2008.4  -2030.9  -2030.91  -2039.53  -2039.97  -2078.72  -2078.72  -2127.16  -2127.16  -2151.86  -2208.58  -2208.58  -2220.71  -2222.21  -2227.14  -2227.15  -2267.83  -2291.05  -2334.34  -2334.41  -2336.58  -2393.34  -2393.4  -2419.48  -2422.91  -2488.2  -2489.36  -2489.41  -2491.63  -2526.64  -2526.69  -2540.77  -2540.77  -2554.06  -2554.11  -2587.97  -2588.03  -2616.4  -2616.51  -2662.59  -2662.69  -2712.23  -2712.32  -2713  -2713.04  -2732.77  -2732.87  -2781.66  -2781.7  -2809.01  -2809.09  -2813.42  -2867.89  -2867.98  -2873.14  -2891.58  -2948.61  -2974.71  -2975.01  -2975.05  -2993.83  -2993.87  -2994.7  -3050.01  -3066.96  -3125.99  -3126.04  -3194.82  -3194.9  -3196.05  -3196.73  -3216.19  -3216.78  -3237.52  -3238.24  -3257.24  -3260.07  -3290.43  -3290.86  -3302.01  -3304.55  -3331.79  -3336.6  -3364.09  -3366.85  -3367.47  -3369.88  -3401.95  -3406.83  -3460.18  -3464.85  -3536.8  -3541.15  -3556.71  -3561.07  -3568.31  -3568.36  -3642.48  -3642.53  -3648.86  -3659.48  -3663.71  -3720.09  -3728.2  -3732.43  -3769.11  -3860.97  -3863.08  -3880.69  -3882.77  -3918.71  -3922.97  -3990.64  -4037.77  -4041.29  -4044.74  -4055.06  -4098.86  -4114.85  -4117.35  -4119.09  -4173.4  -4213.16  -4214.18  -4214.31  -4243.51  -4309.72  -4316.22  -4316.32  -4378.3  -4480.96  -4500.72  -4625.54  -4629.74  -4632.52  -4707.33  -4872.82  -4874.6  -4882.76  -4925.91  -4935.64  -4990.26  -5010.14  -5052.51  -5080.3  -5148.29  -5157.78  -5215.09  -5244.86  -5342.31  -5416.02  -5547.76  -5567.59  -5807.9  -5846.44  -5903.41  -5910.77  -5964.4  -5972.98  -6038.88  -6068.84  -6109.03  -6171.04  -6243.81  -6341.21  -6370.96  -6576.42  -6907.67  -6968.61  -6968.79  -7033.09  -7043.14  -7095.27  -7119.94  -7191.13  -7253.48  -7293.25  -7463.43  -8056.74  -8121.75  -8123.56  -8184.47  -8190.97  -8258.98  -8285.59  -8335.71  -8469.25  -9295.86  -9365.86  -9366.17  -9431.14  -9440.74  -9500.29  -9594.91  -10628.7  -10698.8  -10711  -10768.7  -10843.6  -12071.2  -12125.1  -12207.4  -13661.1  
18  0.0336723  0.0583221   1  -1  -7.17136  -16.1847  -56.766  -71.6705  -104.119  -112.538  -130.914  -133.244  -170.736  -197.316  -199.351  -208.146  -255.673  -278.224  -290.338  -293.192  -299.121  -303.563  -352.708  -362.326  -371.118  -374.931  -416.201  -416.493  -434.746  -444.342  -488.627  -490.451  -536.032  -539.622  -558.37  -559.199  -561.342  -562.274  -620.51  -620.911  -628.954  -629.544  -691.95  -692.49  -696.353  -696.475  -727.094  -727.12  -778.649  -778.814  -785.223  -785.278  -885.926  -886.004  -903.187  -903.361  -913.631  -914.147  -914.346  -914.808  -976.526  -976.601  -978.69  -978.768  -1040.58  -1040.59  -1052.3  -1052.31  -1122.14  -1122.15  -1128.41  -1128.45  -1130.28  -1130.32  -1194.53  -1194.53  -1240.42  -1240.42  -1244.94  -1244.94  -1356.28  -1356.28  -1356.46  -1356.46  -1390.31  -1390.32  -1393.84  -1393.85  -1419.64  -1419.67  -1420.36  -1420.39  -1488.45  -1488.47  -1488.8  -1488.81  -1563.85  -1563.85  -1578.44  -1578.44  -1611.75  -1611.75  -1668.8  -1668.8  -1686.04  -1686.05  -1686.61  -1686.61  -1771.01  -1771.01  -1788  -1788.01  -1833.12  -1833.12  -1887.82  -1887.82  -1887.87  -1887.87  -1950.85  -1950.85  -1950.99  -1950.99  -2009.7  -2009.71  -2010.14  -2010.15  -2019.24  -2019.25  -2019.88  -2019.89  -2102.76  -2102.76  -2102.77  -2102.77  -2186.12  -2186.18  -2209.92  -2209.92  -2225.52  -2225.52  -2256.47  -2256.51  -2302.01  -2302.13  -2363.7  -2363.71  -2363.77  -2363.77  -2453.66  -2453.74  -2457.09  -2457.18  -2507.96  -2507.96  -2508.01  -2508.01  -2540.66  -2540.66  -2570.89  -2570.89  -2571  -2571  -2639.24  -2639.24  -2639.35  -2639.35  -2722.06  -2722.06  -2722.75  -2722.75  -2747.13  -2747.17  -2747.21  -2747.25  -2838.3  -2838.31  -2838.39  -2838.39  -2852.07  -2852.66  -2909.11  -2912.35  -2976.31  -2976.31  -2992.29  -2992.29  -3010.5  -3013.92  -3027.46  -3033.88  -3160.23  -3160.31  -3160.31  -3160.36  -3216.75  -3216.75  -3217.45  -3217.45  -3250.96  -3251.39  -3255.35  -3255.94  -3279.54  -3279.54  -3282.23  -3282.23  -3347.79  -3347.79  -3352.76  -3352.76  -3367.17  -3367.17  -3430.89  -3430.9  -3435.66  -3435.66  -3546.58  -3546.58  -3551  -3551  -3603.01  -3603.07  -3604.42  -3607.46  -3607.51  -3675.67  -3693.62  -3693.78  -3697.87  -3698  -3724.71  -3863.15  -3863.15  -3874.3  -3878.57  -3880.33  -3880.33  -4014.17  -4014.17  -4075.31  -4076.87  -4076.88  -4079.56  -4080.47  -4083.91  -4145.12  -4145.14  -4169.81  -4169.95  -4228.17  -4228.17  -4316.13  -4316.13  -4343.83  -4343.91  -4490.7  -4490.7  -4581.19  -4585.34  -4667.8  -4671.68  -4877.65  -4877.65  -4900.22  -4900.22  -4962.86  -4962.87  -5031.08  -5031.08  -5113  -5114.17  -5114.47  -5229.83  -5229.83  -5376.55  -5381.44  -5557.54  -5557.54  -5763.52  -5874.88  -5874.9  -5937.49  -5937.51  -6005.67  -6005.69  -6088.76  -6088.76  -6204.41  -6210.07  -6355.95  -6355.95  -6532.05  -6938.18  -6938.22  -7000.76  -7000.77  -7068.92  -7068.97  -7151.99  -7158.65  -7273.22  -7273.22  -7419.1  -8090.11  -8090.12  -8152.64  -8153.2  -8220.82  -8228.61  -8310.43  -8310.55  -8425.01  -9330.63  -9331.16  -9393.68  -9402.63  -9469.02  -9471.65  -9550.96  -10660.3  -10666.4  -10731.7  -10746.8  -10800.7  -12084.1  -12110.4  -12164.4  -13616.7  
19  0.0318016  0.055082   1.02994  -1.02994  -7.0472  -16.3605  -56.7948  -71.6371  -103.849  -112.153  -131.242  -133.73  -170.566  -197.303  -199.558  -208.265  -255.714  -278.144  -285.653  -295.357  -297.988  -307.554  -351.324  -360.735  -372.574  -376.649  -416.216  -416.482  -431.381  -447.922  -488.502  -490.338  -536.147  -539.748  -550.468  -553.607  -567.298  -570.208  -611.846  -620.252  -629.665  -638.317  -686.92  -687.508  -701.474  -701.548  -727.114  -727.142  -767.653  -785.294  -785.322  -789.948  -884.767  -884.856  -901.849  -902.472  -905.592  -905.829  -924.87  -925.552  -965.996  -968.292  -987.208  -989.255  -1028.19  -1039.71  -1053.11  -1065  -1119.48  -1119.51  -1124.1  -1124.11  -1137.36  -1137.41  -1194.41  -1194.41  -1230.32  -1240.66  -1240.66  -1259.65  -1342.85  -1343.04  -1369.77  -1369.95  -1385.33  -1385.34  -1398.88  -1398.89  -1405.77  -1406.5  -1433.66  -1434.37  -1476.57  -1476.93  -1500.46  -1500.8  -1547.68  -1562.22  -1580.11  -1594.76  -1611.74  -1611.74  -1668.68  -1668.69  -1676.81  -1676.81  -1696.12  -1696.12  -1769.9  -1769.91  -1789.23  -1789.24  -1815.17  -1851.17  -1871.8  -1871.85  -1903.91  -1903.96  -1935.4  -1935.54  -1966.38  -1966.51  -2000.7  -2001.01  -2002.84  -2003.17  -2018.22  -2018.23  -2036.77  -2037.43  -2089.59  -2089.61  -2116.03  -2116.04  -2186.13  -2186.19  -2190.34  -2205.92  -2229.6  -2245.21  -2256.35  -2256.39  -2302.25  -2302.36  -2352.33  -2352.34  -2375.22  -2375.24  -2448.73  -2448.82  -2462.12  -2462.21  -2489.6  -2489.65  -2519.41  -2526.39  -2526.44  -2551.98  -2552.09  -2562.01  -2589.87  -2589.99  -2622.41  -2622.51  -2656.2  -2656.31  -2700.92  -2701.62  -2737.34  -2737.41  -2743.29  -2743.99  -2757.05  -2757.13  -2823.59  -2823.67  -2852.06  -2852.65  -2853.12  -2853.21  -2909.18  -2912.42  -2953.42  -2969.39  -2999.3  -3009.41  -3013  -3015.28  -3028.68  -3034.93  -3147.26  -3147.26  -3173.36  -3173.5  -3195.8  -3196.51  -3237.77  -3238.46  -3243.03  -3247.51  -3259.16  -3259.41  -3261.81  -3263.88  -3300  -3302.73  -3325.37  -3330.42  -3342.64  -3370.32  -3375.22  -3391.79  -3412.77  -3417.52  -3449.12  -3453.9  -3522.06  -3526.5  -3571.2  -3575.59  -3591.61  -3595.99  -3604.43  -3614.56  -3619.07  -3675.56  -3677.45  -3681.55  -3710.05  -3714.41  -3724.93  -3836.97  -3854.14  -3869.72  -3883.25  -3889.43  -3906.6  -3990.89  -4037.52  -4053.04  -4064.9  -4065.74  -4090.1  -4098.72  -4100.79  -4123.37  -4160.13  -4167  -4179.72  -4202.1  -4254.33  -4288.31  -4324.23  -4344.05  -4363.6  -4462.88  -4518.62  -4572.28  -4594.4  -4653.66  -4685.86  -4848.19  -4874.35  -4907.21  -4926.16  -4937.56  -4988.24  -5003.74  -5058.53  -5091.12  -5129.76  -5137.33  -5200.38  -5259.37  -5360.12  -5397.94  -5526.44  -5588.73  -5783.27  -5846.69  -5903.16  -5908.75  -5966.33  -5979  -6032.48  -6057.77  -6119.85  -6185.44  -6229.11  -6323.22  -6388.77  -6555.09  -6907.42  -6969.04  -6970.54  -7031.07  -7036.7  -7101.3  -7130.64  -7180.07  -7238.88  -7307.65  -7445.44  -8057  -8119.46  -8123.31  -8186.4  -8196.99  -8252.54  -8274.67  -8346.41  -8454.65  -9295.39  -9366.42  -9367.37  -9428.85  -9434.51  -9506.31  -9584  -10628.2  -10698.3  -10708  -10770.2  -10837.4  -12069.5  -12124.7  -12204.4  -13659.4  
20  0.0299309  0.0518418   1.1141  -1.1141  -6.70238  -16.8597  -56.881  -71.5353  -103.088  -111.093  -132.178  -135.091  -170.088  -197.266  -200.119  -208.651  -255.82  -277.787  -279.931  -290.408  -304.054  -313.297  -348.026  -357.311  -376.077  -380.457  -416.261  -416.41  -425.765  -454.234  -488.135  -490.011  -536.041  -539.646  -542.893  -546.179  -575.912  -578.706  -603.078  -611.339  -638.703  -647.445  -680.3  -681.069  -708.239  -708.344  -727.198  -727.227  -756.686  -785.506  -785.542  -801.243  -881.801  -881.934  -891.862  -892.585  -907.954  -908.071  -936.026  -936.689  -955.504  -957.941  -997.932  -999.87  -1015.93  -1027.23  -1065.75  -1077.81  -1112.12  -1112.14  -1123.53  -1123.53  -1145.6  -1145.67  -1194.07  -1194.07  -1215.8  -1241.38  -1241.38  -1274.45  -1329.49  -1329.69  -1378.94  -1378.96  -1383.33  -1383.5  -1392.04  -1392.77  -1405.44  -1405.45  -1447.76  -1448.46  -1464.79  -1465.17  -1512.59  -1512.91  -1531.63  -1546.1  -1596.48  -1611.18  -1611.7  -1611.7  -1665.68  -1665.68  -1670.38  -1670.38  -1706.03  -1706.03  -1767.23  -1767.24  -1792.28  -1792.29  -1797.3  -1855.85  -1855.9  -1869.31  -1920.02  -1920.07  -1920.12  -1920.17  -1982  -1982.12  -1984.17  -1984.8  -1993.96  -1993.97  -2026.57  -2026.57  -2054.46  -2055.11  -2076.53  -2076.54  -2129.4  -2129.42  -2170.85  -2186.16  -2186.22  -2186.42  -2249.36  -2255.99  -2256.03  -2264.99  -2302.95  -2303.07  -2341.02  -2341.02  -2386.8  -2386.82  -2442.53  -2442.61  -2468.64  -2468.72  -2471.31  -2471.36  -2498.25  -2533.15  -2533.26  -2544.89  -2544.94  -2583.45  -2605.68  -2605.79  -2608.93  -2609.05  -2673.27  -2673.38  -2679.89  -2680.58  -2727.62  -2727.69  -2764.61  -2765.3  -2767.05  -2767.13  -2808.97  -2809.05  -2852.02  -2852.62  -2868.02  -2868.11  -2909.39  -2912.61  -2930.62  -2946.58  -3006.75  -3010.67  -3022.38  -3031.7  -3037.63  -3038.37  -3134.3  -3134.3  -3174.92  -3175.64  -3186.58  -3186.72  -3234.99  -3238.84  -3239.49  -3241.46  -3258.85  -3259.53  -3267.75  -3272.21  -3303.07  -3308.18  -3318.2  -3320.55  -3323.31  -3392.97  -3394.74  -3397.79  -3399.47  -3416.52  -3467.45  -3472.25  -3497.64  -3502.09  -3580.23  -3584.59  -3595.9  -3600.28  -3604.46  -3626.2  -3630.72  -3661.22  -3665.32  -3675.25  -3725.59  -3726.59  -3730.92  -3810.87  -3828.05  -3863.63  -3889.65  -3915.8  -3932.97  -3967.67  -4029.28  -4050.33  -4051.09  -4060.94  -4101.72  -4104.96  -4113.61  -4124.78  -4150.41  -4176.14  -4188.99  -4189.73  -4260.58  -4280.59  -4304.65  -4372.06  -4383.46  -4435.14  -4546.63  -4559.32  -4607.7  -4635.73  -4704.01  -4818.81  -4848.54  -4912.34  -4936.86  -4952.17  -4976.52  -5013.71  -5068.16  -5086.1  -5146.34  -5160.56  -5171.03  -5289  -5338.89  -5419.43  -5495.43  -5620.01  -5803.11  -5818.55  -5880.07  -5931.5  -5952.43  -5995.25  -6026.88  -6059.4  -6151.04  -6160.9  -6253.9  -6290.58  -6421.68  -6578.22  -6876.69  -6940.39  -6999.98  -7004.55  -7061.46  -7102.73  -7133.79  -7204.63  -7208.25  -7342.18  -7471.86  -8023.93  -8085.81  -8156.58  -8165.48  -8220.24  -8238.9  -8284.38  -8382.49  -8484.39  -9259.7  -9332.19  -9397.51  -9402.28  -9464.12  -9543.71  -9617.13  -10590.1  -10669.3  -10736.5  -10808.9  -10874.2  -12028.6  -12165.3  -12244.4  -13702.2  
21  0.0280602  0.0486017   1.23931  -1.23931  -6.19992  -17.6178  -57.0234  -71.3605  -101.949  -109.563  -133.594  -137.123  -169.396  -197.207  -200.871  -209.392  -255.93  -274.364  -276.658  -286.263  -310.255  -319.291  -343.929  -353.357  -380.468  -385.053  -415.921  -416.34  -420.455  -461.118  -487.546  -489.5  -531.948  -535.431  -539.808  -543.389  -584.62  -587.302  -594.405  -602.504  -647.824  -656.634  -673.679  -674.652  -714.963  -715.256  -727.465  -727.487  -745.84  -785.856  -785.894  -812.651  -876.99  -877.368  -882.45  -882.963  -911.86  -911.975  -945.085  -947.284  -947.668  -947.933  -1003.8  -1008.74  -1010.58  -1014.87  -1078.51  -1090.72  -1104.28  -1104.28  -1123.48  -1123.48  -1154  -1154.09  -1193.54  -1193.54  -1201.37  -1242.55  -1242.55  -1289.35  -1316.19  -1316.4  -1372.14  -1372.25  -1378.84  -1379.5  -1396.93  -1397.09  -1412.16  -1412.17  -1453.13  -1453.53  -1461.95  -1462.63  -1515.67  -1524.84  -1525.16  -1530.08  -1611.65  -1611.65  -1612.94  -1627.7  -1656.79  -1656.79  -1670.04  -1670.05  -1716.04  -1716.05  -1763.88  -1763.88  -1779.53  -1796.28  -1796.28  -1839.96  -1840.02  -1887.54  -1904.71  -1904.87  -1936.3  -1936.35  -1966.99  -1967.63  -1985.93  -1985.94  -1997.69  -1997.81  -2035  -2035  -2063.57  -2063.58  -2072.26  -2072.92  -2142.88  -2142.89  -2151.46  -2167.01  -2186.21  -2186.27  -2255.42  -2255.46  -2269.22  -2284.87  -2304.1  -2304.21  -2329.8  -2329.81  -2398.47  -2398.48  -2436.36  -2436.44  -2453.09  -2453.14  -2475.33  -2475.41  -2477.18  -2514.42  -2514.53  -2563.46  -2563.51  -2589.06  -2589.17  -2604.97  -2628.07  -2628.19  -2658.95  -2659.64  -2690.47  -2690.58  -2717.98  -2718.05  -2777.1  -2777.18  -2786.06  -2786.76  -2794.45  -2794.53  -2851.97  -2852.57  -2883.03  -2883.12  -2907.9  -2909.73  -2912.92  -2923.86  -3003.41  -3007.62  -3035.65  -3041.32  -3045.55  -3061.55  -3121.43  -3121.43  -3154.11  -3154.84  -3199.89  -3200.03  -3218.62  -3221.19  -3227.05  -3231.54  -3276.18  -3280  -3280.63  -3280.68  -3280.9  -3286.06  -3293.88  -3341.18  -3343.97  -3376.81  -3381.53  -3415.72  -3420.46  -3441.33  -3473.3  -3477.77  -3485.88  -3490.69  -3568.94  -3573.29  -3604.51  -3620.7  -3625.05  -3637.93  -3642.46  -3645.09  -3649.19  -3674.75  -3726.68  -3743.2  -3747.52  -3784.87  -3802.04  -3857.53  -3896.26  -3942.25  -3944.52  -3959.43  -4005.62  -4035.84  -4036.54  -4080.18  -4084.44  -4119.91  -4128.6  -4140.79  -4148.84  -4150.28  -4199.81  -4211.13  -4232.93  -4285.16  -4306.95  -4400.16  -4403.42  -4407.5  -4546.45  -4574.73  -4617.89  -4621.08  -4722.26  -4789.53  -4822.81  -4887.18  -4949.42  -4966.6  -4978.24  -5039.26  -5045.3  -5113.77  -5141.77  -5163  -5183.9  -5317.76  -5318.72  -5441  -5464.51  -5651.39  -5790.48  -5823.04  -5851.48  -5925.96  -5959.92  -5996.1  -6024.24  -6086.45  -6136.46  -6182.32  -6258.03  -6278.78  -6454.69  -6601.44  -6846.04  -6910.31  -6972.52  -7030.98  -7074.92  -7091.93  -7166.39  -7170.47  -7236.53  -7376.8  -7498.38  -7990.94  -8052.25  -8134.07  -8189.92  -8203.23  -8254.16  -8316.35  -8418.66  -8514.22  -9224.08  -9297.08  -9360.63  -9438.2  -9499.47  -9581.21  -9650.37  -10552  -10630.7  -10774.7  -10847.6  -10911.2  -11987.8  -12206  -12284.6  -13745.1  
22  0.0261895  0.0453616   1.39134  -1.39134  -5.60467  -18.5674  -57.2202  -71.1055  -100.568  -107.761  -135.332  -139.631  -168.615  -197.126  -201.607  -210.601  -255.869  -269.169  -273.915  -283.863  -316.533  -325.42  -339.567  -349.311  -385.086  -390.005  -412.96  -416.457  -417.974  -468.218  -486.763  -488.869  -524.344  -527.883  -540.723  -544.441  -585.831  -593.411  -593.736  -596  -657.01  -665.751  -667.265  -668.339  -721.105  -721.483  -728.467  -728.543  -735.136  -786.34  -786.38  -824.166  -868.334  -869.094  -876.644  -876.81  -916.294  -916.414  -934.746  -937.5  -958.623  -959.243  -991.804  -1002.63  -1019.63  -1021.38  -1091.39  -1096.43  -1096.44  -1103.73  -1123.52  -1123.52  -1162.49  -1162.61  -1187.03  -1192.86  -1192.87  -1244.14  -1244.14  -1302.97  -1303.18  -1304.35  -1362.66  -1363.23  -1368.49  -1368.71  -1410.55  -1410.7  -1419.06  -1419.07  -1441.57  -1442.01  -1476.21  -1476.88  -1499.83  -1514.15  -1537.22  -1537.53  -1611.56  -1611.57  -1629.51  -1644.3  -1647.41  -1647.41  -1670.41  -1670.41  -1726.15  -1726.15  -1760.28  -1760.29  -1761.85  -1800.77  -1800.77  -1824.15  -1824.21  -1889.47  -1889.64  -1905.86  -1949.91  -1950.54  -1952.6  -1952.64  -1978.03  -1978.04  -2013.47  -2013.59  -2043.52  -2043.53  -2050.71  -2050.73  -2090.18  -2090.84  -2132.16  -2147.69  -2156.46  -2156.48  -2186.28  -2186.34  -2254.67  -2254.71  -2289.18  -2304.83  -2305.63  -2305.74  -2318.7  -2318.7  -2410.22  -2410.23  -2430.27  -2430.36  -2434.93  -2434.98  -2456.2  -2482.14  -2482.23  -2495.76  -2495.87  -2572.55  -2572.66  -2582.1  -2582.15  -2626.59  -2638.12  -2638.81  -2647.28  -2647.4  -2707.79  -2707.9  -2708.43  -2708.5  -2780.03  -2780.11  -2787.27  -2787.35  -2807.59  -2808.29  -2851.89  -2852.5  -2885.28  -2898.13  -2898.22  -2901.23  -2910.21  -2913.36  -2999.82  -3004.26  -3040.1  -3045.56  -3068.81  -3084.82  -3108.65  -3108.65  -3133.37  -3134.11  -3198.46  -3200.98  -3213.28  -3213.42  -3219.2  -3223.7  -3258.84  -3264.04  -3269.67  -3284.72  -3289.16  -3301.22  -3301.89  -3358.97  -3361.89  -3363.69  -3364.72  -3438.58  -3443.24  -3449.06  -3453.55  -3466.24  -3504.41  -3509.25  -3557.74  -3562.06  -3604.57  -3629.06  -3633.16  -3645.59  -3649.74  -3649.92  -3654.29  -3674.09  -3728.16  -3758.96  -3759.92  -3764.22  -3776.13  -3851.5  -3902.99  -3921.44  -3968.8  -3982.04  -3985.98  -4021.44  -4022.08  -4058.74  -4108  -4124.52  -4131.27  -4134.94  -4143.68  -4172.98  -4205.38  -4210.01  -4233.37  -4265.75  -4333.4  -4379.95  -4423.47  -4428.35  -4533.67  -4600.14  -4602.92  -4634.55  -4740.61  -4760.34  -4797.15  -4862.09  -4922.45  -4996.43  -5004.39  -5022.53  -5064.9  -5112.6  -5141.55  -5179.74  -5207.36  -5296.71  -5348.54  -5433.68  -5462.66  -5682.85  -5762.48  -5822.97  -5843.06  -5899.6  -5965.41  -5988.4  -6053.3  -6112.11  -6113.62  -6213.7  -6225.58  -6303.76  -6487.78  -6624.76  -6815.45  -6880.3  -6940.62  -7047.2  -7062.04  -7122.49  -7136.41  -7199.1  -7264.91  -7411.51  -7524.99  -7958.02  -8018.78  -8102.76  -8167.66  -8223.32  -8288.14  -8348.44  -8454.93  -8544.15  -9188.53  -9262.04  -9323.88  -9474.19  -9534.92  -9618.82  -9683.72  -10514  -10592.2  -10813  -10886.4  -10948.2  -11947.1  -12246.8  -12324.9  -13788  
23  0.0243189  0.0421215   1.55848  -1.55848  -4.9668  -19.6544  -57.4688  -70.7612  -99.0651  -105.823  -137.231  -142.481  -167.884  -197.027  -202.171  -212.339  -255.109  -264.878  -269.699  -283.076  -322.847  -331.652  -335.175  -345.345  -389.297  -395.16  -408.578  -416.626  -417.781  -475.325  -485.81  -488.266  -516.364  -519.994  -542.481  -546.32  -577.359  -585.083  -602.279  -604.752  -660.646  -661.988  -666.421  -675.216  -723.711  -724.553  -725.518  -732.265  -732.796  -786.951  -786.993  -835.784  -857.995  -858.849  -872.514  -872.624  -920.918  -921.116  -924.598  -927.458  -970.039  -970.638  -979.957  -990.512  -1030.61  -1032.27  -1088.65  -1088.67  -1104.37  -1116.83  -1123.59  -1123.6  -1171.02  -1171.17  -1172.79  -1192.12  -1192.13  -1246.1  -1246.1  -1289.8  -1290.02  -1319.43  -1349.85  -1350.61  -1361.65  -1361.7  -1423.68  -1423.77  -1426.61  -1426.68  -1430.12  -1430.6  -1484.1  -1490.53  -1491.19  -1498.33  -1549.73  -1550.04  -1611.46  -1611.46  -1638.05  -1638.05  -1646.17  -1661.01  -1670.97  -1670.97  -1736.32  -1736.32  -1744.27  -1756.67  -1756.67  -1805.57  -1805.57  -1808.41  -1808.47  -1874.3  -1874.47  -1924.28  -1932.94  -1933.56  -1968.96  -1969  -1970.23  -1970.24  -2029.33  -2029.44  -2037.96  -2037.97  -2052.14  -2052.15  -2108.2  -2108.86  -2112.95  -2128.46  -2170.15  -2170.17  -2186.37  -2186.42  -2253.79  -2253.84  -2306.64  -2306.69  -2308.58  -2308.64  -2309.22  -2324.89  -2416.84  -2416.89  -2422.03  -2422.05  -2424.31  -2424.4  -2435.31  -2477.2  -2477.31  -2489.07  -2489.15  -2556.14  -2556.25  -2600.8  -2600.85  -2617.4  -2618.08  -2648.3  -2666.55  -2666.68  -2698.96  -2699.03  -2725.24  -2725.36  -2765.71  -2765.79  -2797.53  -2797.61  -2829.21  -2829.91  -2851.8  -2852.42  -2862.76  -2878.69  -2910.8  -2913.33  -2913.39  -2913.93  -2996.18  -3000.8  -3044.84  -3050.16  -3092.16  -3095.95  -3095.95  -3108.18  -3112.7  -3113.45  -3178.36  -3180.83  -3211.45  -3215.95  -3226.75  -3226.9  -3236.9  -3242.08  -3245.64  -3293.35  -3297.79  -3322.51  -3323.16  -3341.23  -3345.94  -3382.7  -3385.55  -3424.91  -3429.42  -3461.53  -3466.12  -3491.24  -3523.05  -3527.91  -3546.62  -3550.92  -3604.64  -3613.13  -3617.22  -3661.64  -3666.2  -3670.57  -3673.31  -3674.89  -3729.99  -3733.14  -3750.31  -3776.73  -3781.02  -3845.57  -3898.43  -3909.84  -3958.55  -3995.45  -4007.13  -4007.71  -4012.63  -4037.41  -4098.86  -4121.84  -4131.63  -4150.06  -4158.85  -4177.93  -4197.18  -4220.31  -4246.45  -4255.75  -4352.48  -4359.96  -4443.61  -4456.63  -4520.98  -4582.48  -4631.21  -4648.12  -4731.24  -4759.05  -4771.55  -4837.07  -4895.61  -4999.87  -5026.35  -5030.6  -5083.52  -5090.63  -5169.44  -5196.57  -5230.92  -5275.76  -5378.45  -5402.95  -5484.42  -5714.41  -5734.54  -5794.56  -5863.18  -5873.34  -5934.83  -6016.96  -6082.42  -6087.85  -6140.92  -6193.22  -6245.18  -6328.83  -6520.97  -6648.16  -6784.93  -6850.36  -6908.85  -7019.58  -7093.18  -7102.44  -7153.15  -7231.91  -7293.4  -7446.32  -7551.69  -7925.16  -7985.4  -8071.56  -8132.2  -8256.8  -8322.19  -8380.66  -8491.3  -8574.16  -9153.06  -9227.06  -9287.26  -9510.25  -9570.46  -9656.52  -9717.17  -10476.1  -10553.9  -10851.4  -10925.3  -10985.5  -11906.5  -12287.6  -12365.3  -13831.1  
24  0.0224482  0.0388814   1.73205  -1.73205  -4.32076  -20.8391  -57.7654  -70.318  -97.5387  -103.84  -139.135  -145.584  -167.349  -196.913  -202.517  -214.571  -252.628  -262.509  -264.873  -283.021  -329.068  -330.875  -337.976  -341.646  -391.664  -400.428  -405.972  -416.879  -418.066  -481.675  -484.696  -488.438  -508.422  -512.125  -544.663  -548.648  -568.994  -576.511  -611.223  -613.593  -654.291  -655.95  -675.706  -684.558  -713.901  -725.403  -725.574  -738.782  -739.679  -787.682  -787.728  -847.422  -847.504  -848.323  -868.712  -868.819  -914.153  -917.278  -926.127  -926.26  -968.258  -978.525  -981.527  -982.105  -1041.67  -1043.26  -1080.95  -1080.98  -1117.46  -1123.66  -1123.69  -1130.05  -1158.64  -1179.42  -1179.61  -1191.53  -1191.54  -1248.39  -1248.39  -1276.7  -1276.94  -1334.61  -1336.53  -1337.32  -1355.51  -1355.53  -1418.75  -1419.29  -1432.44  -1432.44  -1438.71  -1438.85  -1468.48  -1482.62  -1504.93  -1505.57  -1562.37  -1562.68  -1611.34  -1611.34  -1628.77  -1628.77  -1662.93  -1671.66  -1671.66  -1677.81  -1726.77  -1746.43  -1746.43  -1753.25  -1753.25  -1792.74  -1792.8  -1810.59  -1810.6  -1859.19  -1859.37  -1916.11  -1916.72  -1942.79  -1962.52  -1962.52  -1985.38  -1985.43  -2025.31  -2025.33  -2045.26  -2045.37  -2060.87  -2060.88  -2093.83  -2109.32  -2126.32  -2126.98  -2183.95  -2183.96  -2186.47  -2186.52  -2252.82  -2252.87  -2296.55  -2296.55  -2309.96  -2310.07  -2329.36  -2345.04  -2398.81  -2398.86  -2414.51  -2418.39  -2418.48  -2433.98  -2434  -2458.73  -2458.84  -2496.11  -2496.19  -2539.83  -2539.93  -2596.78  -2597.46  -2619.58  -2619.63  -2670.09  -2685.88  -2686.02  -2689.57  -2689.64  -2742.83  -2742.95  -2751.49  -2751.57  -2807.87  -2807.95  -2840.32  -2850.93  -2851.63  -2851.69  -2852.33  -2856.25  -2911.51  -2914.55  -2928.61  -2928.7  -2992.6  -2997.37  -3049.8  -3055  -3083.35  -3083.35  -3092.11  -3092.86  -3115.61  -3131.63  -3158.32  -3160.75  -3203.79  -3208.3  -3215.08  -3219.93  -3222.05  -3240.31  -3240.46  -3302.09  -3306.53  -3323.59  -3328.29  -3343.87  -3344.51  -3400.85  -3403.6  -3405.39  -3406.48  -3484.59  -3489.1  -3516.33  -3535.58  -3539.85  -3541.79  -3546.69  -3597.3  -3601.39  -3604.73  -3672.38  -3673.7  -3678.21  -3695.65  -3699.94  -3707.42  -3724.58  -3732.13  -3793.63  -3797.91  -3839.74  -3875.48  -3916.79  -3935.15  -3992.91  -3993.43  -4016.18  -4022.18  -4039.36  -4073.31  -4112.5  -4150.56  -4155.33  -4165.25  -4174.11  -4221.44  -4227.23  -4230.71  -4278.27  -4325.12  -4386.6  -4463.84  -4485  -4508.38  -4564.92  -4659.58  -4661.77  -4702.23  -4746.03  -4777.58  -4812.11  -4868.91  -4977.3  -5054.54  -5056.36  -5056.88  -5116.46  -5197.42  -5213.49  -5254.59  -5254.9  -5372.31  -5408.44  -5506.27  -5706.67  -5746.06  -5766.23  -5847.18  -5883.38  -5904.35  -6045.58  -6063.68  -6111.61  -6160.95  -6168.36  -6276.75  -6353.99  -6554.25  -6671.66  -6754.49  -6820.47  -6877.21  -6992.05  -7068.56  -7124.38  -7183.89  -7264.82  -7321.99  -7481.21  -7578.49  -7892.36  -7952.12  -8040.44  -8096.85  -8290.35  -8356.3  -8413.01  -8527.76  -8604.27  -9117.66  -9192.15  -9250.78  -9546.38  -9606.1  -9694.32  -9750.72  -10438.3  -10515.6  -10889.8  -10964.2  -11022.8  -11866  -12328.5  -12405.7  -13874.3  
25  0.0205775  0.0356413   1.90576  -1.90576  -3.68941  -22.0918  -58.1053  -69.7677  -96.0624  -101.871  -140.892  -148.887  -167.159  -196.789  -202.671  -217.203  -248.439  -259.882  -262.041  -283.21  -326.767  -333.986  -339.453  -344.381  -390.293  -405.683  -407.119  -417.31  -418.726  -483.376  -483.975  -492.641  -500.667  -504.389  -547.152  -551.329  -560.751  -568.038  -620.24  -622.512  -648.025  -649.969  -685.12  -693.939  -703.583  -725.606  -725.719  -746.069  -747.257  -788.523  -788.576  -836.835  -837.774  -859.323  -865.069  -865.19  -904.031  -907.375  -931.257  -931.385  -956.713  -966.67  -993.085  -993.642  -1052.83  -1054.35  -1073.34  -1073.39  -1123.76  -1123.77  -1130.68  -1143.32  -1144.59  -1186.36  -1186.5  -1192.47  -1192.57  -1250.98  -1250.98  -1263.67  -1263.91  -1323.18  -1324  -1349.59  -1349.6  -1349.89  -1407.49  -1408.09  -1439.69  -1439.69  -1452.47  -1452.62  -1452.99  -1467.01  -1519.38  -1520.01  -1575.16  -1575.47  -1611.15  -1611.15  -1619.62  -1619.62  -1672.45  -1672.45  -1679.79  -1694.7  -1709.37  -1749.25  -1749.26  -1757.29  -1757.3  -1777.14  -1777.2  -1815.8  -1815.81  -1844.13  -1844.32  -1899.41  -1900.02  -1954.89  -1954.89  -1961.39  -2001.88  -2001.92  -2012.77  -2012.79  -2061.21  -2061.32  -2069.77  -2069.77  -2074.81  -2090.28  -2144.53  -2145.19  -2186.58  -2186.63  -2197.86  -2197.88  -2251.8  -2251.85  -2285.73  -2285.73  -2312.47  -2312.58  -2349.59  -2365.28  -2380.85  -2380.9  -2393.81  -2412.62  -2412.71  -2440.36  -2440.47  -2445.98  -2445.99  -2503.26  -2503.34  -2523.61  -2523.71  -2576.27  -2576.95  -2638.43  -2638.48  -2680.27  -2680.34  -2691.97  -2705.27  -2705.43  -2737.38  -2737.46  -2760.56  -2760.68  -2817.97  -2818.31  -2818.39  -2833.89  -2851.57  -2852.23  -2872.74  -2873.44  -2912.33  -2915.29  -2943.99  -2944.08  -2989.1  -2994.02  -3054.93  -3060.03  -3070.83  -3070.83  -3071.59  -3072.35  -3138.34  -3139.14  -3140.72  -3155.17  -3193.35  -3196.23  -3196.9  -3199.61  -3200.75  -3253.94  -3254.1  -3306.04  -3310.74  -3310.94  -3315.36  -3365.28  -3365.92  -3376.88  -3381.45  -3424.59  -3427.49  -3507.74  -3512.16  -3524.62  -3528.86  -3541.52  -3560.65  -3565.58  -3581.59  -3585.67  -3604.83  -3671.52  -3681.78  -3685.72  -3690.31  -3698.95  -3720.81  -3725.09  -3734.56  -3810.63  -3814.89  -3834.02  -3852.6  -3911.84  -3923.84  -3978.78  -3979.23  -3995.04  -4047.87  -4049  -4066.19  -4103.26  -4123.28  -4179.11  -4180.53  -4189.46  -4208.11  -4241.21  -4245.76  -4297.84  -4300.92  -4413.34  -4484.17  -4495.88  -4513.46  -4547.44  -4673.32  -4675.51  -4688.05  -4720.58  -4787.21  -4796.21  -4842.34  -4954.82  -5025.65  -5083.22  -5086.47  -5142.37  -5225.49  -5230.5  -5234.13  -5278.37  -5341.75  -5438.54  -5528.21  -5678.86  -5738  -5777.8  -5821.11  -5873.99  -5903.68  -6039.6  -6074.28  -6128.77  -6140.85  -6195.94  -6308.42  -6379.24  -6587.62  -6695.25  -6724.12  -6790.65  -6845.72  -6964.62  -7034.77  -7155.64  -7214.73  -7297.82  -7350.69  -7516.2  -7605.37  -7859.64  -7918.94  -8009.42  -8061.61  -8323.97  -8390.47  -8445.51  -8564.31  -8634.47  -9082.33  -9157.3  -9214.45  -9582.57  -9641.83  -9732.2  -9784.39  -10400.5  -10477.4  -10928.3  -11003.2  -11060.3  -11825.5  -12369.5  -12446.3  -13917.5  
26  0.0187068  0.0324012   2.07495  -2.07495  -3.08795  -23.3883  -58.4824  -69.1062  -94.6897  -99.956  -142.363  -152.354  -167.452  -196.657  -202.677  -220.135  -243.538  -254.898  -262.465  -283.413  -322.942  -332.775  -343.617  -350.862  -386.495  -410.346  -410.565  -418.265  -420.121  -481.627  -483.272  -493.376  -496.704  -499.942  -549.692  -552.836  -554.268  -559.717  -629.328  -631.502  -641.853  -644.108  -693.386  -694.598  -703.345  -725.644  -725.752  -753.643  -755.115  -789.468  -789.531  -826.286  -827.264  -861.561  -861.695  -871.253  -893.967  -897.527  -936.555  -936.691  -945.33  -954.953  -1004.71  -1005.25  -1064.08  -1065.53  -1065.83  -1065.89  -1123.89  -1123.89  -1130.64  -1143.96  -1156.66  -1187.78  -1187.82  -1199  -1199.28  -1250.7  -1250.94  -1253.85  -1253.85  -1309.88  -1310.72  -1343.8  -1343.82  -1365.25  -1396.32  -1397.01  -1437.62  -1446.93  -1446.93  -1451.51  -1466.42  -1466.56  -1533.89  -1534.5  -1588.09  -1588.4  -1609.64  -1609.64  -1611.89  -1611.89  -1673.34  -1673.34  -1692.06  -1696.74  -1711.69  -1746.02  -1746.03  -1761.61  -1761.68  -1767.61  -1767.61  -1821.17  -1821.18  -1829.12  -1829.33  -1882.86  -1883.46  -1947.34  -1947.35  -1980.08  -2000.34  -2000.36  -2018.44  -2018.48  -2055.88  -2071.33  -2076.52  -2076.58  -2079.49  -2079.54  -2162.83  -2163.49  -2186.69  -2186.75  -2211.89  -2211.91  -2250.76  -2250.81  -2274.97  -2274.98  -2315.25  -2315.36  -2362.96  -2363.01  -2369.91  -2373.2  -2385.62  -2406.96  -2407.05  -2422.08  -2422.18  -2458.05  -2458.06  -2507.48  -2507.58  -2510.52  -2510.6  -2555.88  -2556.56  -2657.36  -2657.41  -2671.04  -2671.11  -2713.94  -2723.38  -2723.46  -2724.71  -2724.89  -2778.43  -2778.55  -2795.72  -2811.63  -2828.84  -2828.91  -2851.45  -2852.12  -2894.65  -2895.35  -2913.22  -2916.1  -2959.47  -2959.56  -2985.74  -2990.8  -3051.12  -3051.9  -3058.39  -3058.4  -3060.23  -3065.25  -3118.41  -3120.74  -3162.77  -3171.53  -3173.55  -3177.97  -3178.81  -3188.77  -3193.3  -3267.64  -3267.81  -3288.58  -3293.28  -3319.9  -3324.31  -3353.01  -3357.6  -3386.77  -3387.4  -3445.68  -3448.6  -3513.74  -3517.94  -3530.97  -3535.31  -3565.99  -3566.79  -3570.04  -3579.62  -3584.59  -3604.94  -3656.24  -3670.6  -3673.4  -3697.89  -3702.49  -3737.24  -3746.07  -3750.33  -3827.72  -3828.42  -3829.78  -3831.97  -3888.64  -3930.99  -3964.74  -3965.1  -3974.02  -4022.55  -4075.92  -4093.1  -4094.12  -4096.1  -4189.08  -4195.88  -4202.95  -4204.91  -4251.82  -4270.13  -4270.65  -4323.72  -4440.18  -4483.47  -4504.59  -4530.06  -4542.02  -4644.49  -4689.34  -4695.2  -4716.61  -4762.36  -4814.93  -4815.92  -4932.44  -4996.85  -5109.63  -5116.66  -5168.38  -5213.46  -5247.6  -5253.65  -5302.26  -5311.29  -5468.72  -5550.24  -5651.12  -5709.87  -5795.13  -5809.63  -5843.74  -5924.07  -6015.62  -6096.68  -6103.05  -6170.15  -6223.66  -6340.18  -6404.59  -6621.08  -6693.81  -6718.93  -6760.87  -6814.37  -6937.28  -7001.08  -7186.98  -7245.67  -7330.9  -7379.51  -7551.28  -7632.35  -7826.98  -7885.86  -7978.48  -8026.48  -8357.66  -8424.69  -8478.15  -8600.97  -8664.77  -9047.08  -9122.5  -9178.25  -9618.82  -9677.67  -9770.17  -9818.18  -10362.8  -10439.4  -10966.9  -11042.2  -11098  -11785.2  -12410.6  -12487  -13960.9  
27  0.0168361  0.029161   2.23607  -2.23607  -2.52667  -24.7064  -58.8892  -68.3363  -93.4565  -98.1239  -143.446  -155.964  -168.327  -196.523  -202.564  -223.283  -238.425  -250.005  -263.267  -283.467  -319.507  -329.607  -349.986  -357.415  -382.042  -413.146  -413.956  -420.847  -422.993  -478.624  -481.458  -487.416  -490.046  -507.493  -544.351  -551.237  -553.14  -557.748  -635.721  -638.166  -638.697  -640.612  -683.347  -704.122  -712.72  -725.633  -725.789  -761.386  -763.146  -790.509  -790.592  -815.797  -816.814  -858.171  -858.351  -883.271  -884.001  -887.775  -934.105  -941.997  -942.124  -943.394  -1016.4  -1016.92  -1058.4  -1058.48  -1075.42  -1076.82  -1116.78  -1124.01  -1124.01  -1157.34  -1170.06  -1187.21  -1187.25  -1207.65  -1208.03  -1237.8  -1238.06  -1256.93  -1256.93  -1296.66  -1297.51  -1338.14  -1338.16  -1380.71  -1385.22  -1386.03  -1422.41  -1436.12  -1454.23  -1454.23  -1480.47  -1480.6  -1548.44  -1549.03  -1601.16  -1601.2  -1601.21  -1601.49  -1611.15  -1611.15  -1674.29  -1674.29  -1674.84  -1713.79  -1728.77  -1742.85  -1742.85  -1746.15  -1746.23  -1778.1  -1778.11  -1814.16  -1814.38  -1826.7  -1826.7  -1866.46  -1867.05  -1939.87  -1939.87  -1988.02  -1988.04  -1998.86  -2035.06  -2035.1  -2037.04  -2052.47  -2087.04  -2087.05  -2094.18  -2094.28  -2181.21  -2181.87  -2186.82  -2186.87  -2226.04  -2226.06  -2249.71  -2249.76  -2264.33  -2264.33  -2318.26  -2318.36  -2345.13  -2345.18  -2352.68  -2390.32  -2401.41  -2401.5  -2403.9  -2404.01  -2406.05  -2470.19  -2470.2  -2491.43  -2491.53  -2517.91  -2517.98  -2535.61  -2536.28  -2661.87  -2661.94  -2676.35  -2676.4  -2709.49  -2709.57  -2735.98  -2744.2  -2744.41  -2773.56  -2789.46  -2796.45  -2796.57  -2839.45  -2839.53  -2851.33  -2852.01  -2914.18  -2916.66  -2916.97  -2917.36  -2975.05  -2975.14  -2982.54  -2987.73  -3030.74  -3031.52  -3046.07  -3046.08  -3065.63  -3070.59  -3098.53  -3100.81  -3148.81  -3151.19  -3156.62  -3181.4  -3185.95  -3186.49  -3202.53  -3271.22  -3275.92  -3281.42  -3281.6  -3328.97  -3329.23  -3333.37  -3333.85  -3408.32  -3408.94  -3466.86  -3469.8  -3502.93  -3507.07  -3550.51  -3554.29  -3554.53  -3558.53  -3592.15  -3598.72  -3603.73  -3605.05  -3630.79  -3647.95  -3669.68  -3710.15  -3714.77  -3740.14  -3771.42  -3775.66  -3807.03  -3822.94  -3844.91  -3849.14  -3865.52  -3938.24  -3950.79  -3950.86  -3953.28  -3997.35  -4069  -4085.07  -4102.93  -4120.11  -4170.14  -4211.3  -4220.44  -4226.87  -4243.56  -4262.55  -4294.54  -4346.67  -4467.11  -4471.15  -4512.77  -4525.11  -4570.67  -4615.76  -4669.89  -4703.26  -4737.55  -4745.26  -4789.65  -4833.74  -4910.15  -4968.15  -5136.1  -5146.95  -5192.87  -5194.49  -5264.8  -5280.92  -5281.89  -5326.28  -5498.99  -5572.36  -5623.45  -5681.83  -5769.23  -5813.61  -5841.56  -5944.55  -5991.73  -6064.68  -6131.89  -6199.49  -6251.53  -6372.03  -6430.03  -6654.64  -6663.58  -6731.15  -6742.7  -6783.17  -6910.04  -6967.48  -7218.37  -7276.7  -7364.07  -7408.45  -7586.46  -7659.41  -7794.38  -7852.88  -7947.61  -7991.48  -8391.42  -8458.95  -8510.94  -8637.71  -8695.16  -9011.91  -9087.75  -9142.21  -9655.14  -9713.6  -9808.22  -9852.09  -10325.2  -10401.4  -11005.6  -11081.3  -11135.7  -11745  -12451.7  -12527.8  -14004.3  
28  0.0149655  0.0259209   2.38633  -2.38633  -2.01273  -26.0244  -59.3163  -67.4703  -92.3833  -96.399  -144.113  -159.7  -169.813  -196.389  -202.345  -226.577  -233.27  -245.261  -264.255  -283.222  -316.578  -326.404  -356.658  -364.034  -377.552  -414.71  -415.348  -425.556  -427.553  -473.224  -477.461  -483.959  -485.453  -515.336  -536.457  -543.106  -556.308  -561.247  -629.722  -632.763  -647.736  -649.742  -673.48  -713.645  -721.682  -725.648  -726.24  -769.231  -771.273  -791.643  -791.771  -805.393  -806.449  -854.854  -855.127  -874.198  -878.156  -895.389  -923.057  -931.951  -947.558  -947.718  -1028.16  -1028.66  -1051.07  -1051.16  -1086.86  -1088.2  -1103.02  -1124.13  -1124.13  -1170.79  -1183.36  -1186.42  -1186.59  -1216.67  -1217.18  -1224.96  -1225.23  -1260.24  -1260.24  -1283.53  -1284.4  -1332.58  -1332.6  -1374.2  -1375.15  -1396.26  -1407.35  -1420.85  -1461.62  -1461.62  -1494.6  -1494.72  -1563.04  -1563.61  -1592.3  -1592.31  -1610.97  -1610.97  -1614.41  -1614.74  -1657.71  -1675.29  -1675.29  -1730.76  -1730.84  -1730.93  -1739.85  -1739.86  -1745.95  -1788.69  -1788.7  -1799.24  -1799.48  -1832.37  -1832.38  -1850.22  -1850.79  -1932.47  -1932.47  -1975.82  -1975.85  -2017.73  -2018.31  -2033.71  -2051.75  -2051.79  -2096.25  -2096.25  -2110.39  -2110.49  -2186.94  -2187  -2199.67  -2200.32  -2240.32  -2240.35  -2248.54  -2248.59  -2253.94  -2253.95  -2321.45  -2321.55  -2327.35  -2327.41  -2332.27  -2385.81  -2385.91  -2396  -2396.09  -2410.83  -2426.56  -2475.45  -2475.55  -2482.39  -2482.41  -2515.48  -2516.14  -2525.41  -2525.49  -2652.78  -2652.85  -2695.42  -2695.47  -2695.72  -2695.8  -2751.49  -2758.08  -2763.73  -2764.01  -2767.38  -2814.62  -2814.74  -2850.15  -2850.23  -2851.22  -2851.92  -2915.19  -2917.88  -2938.75  -2939.45  -2979.53  -2984.85  -2990.71  -2990.81  -3010.43  -3011.22  -3033.83  -3033.84  -3071.16  -3076.07  -3078.69  -3080.93  -3125.35  -3129.77  -3135.47  -3174.13  -3178.69  -3210.3  -3226.35  -3253.96  -3258.65  -3295.25  -3295.46  -3305.55  -3310.19  -3338.16  -3342.54  -3429.93  -3430.54  -3488.14  -3491.09  -3492.19  -3496.26  -3535.17  -3539.14  -3577.67  -3581.82  -3605.16  -3605.42  -3617.5  -3618.05  -3622.58  -3623.02  -3668.8  -3722.49  -3727.13  -3743.24  -3784.34  -3796.86  -3801.09  -3817.59  -3842.51  -3862.18  -3866.4  -3931.93  -3936.93  -3937.39  -3945.58  -3972.28  -4042  -4076.11  -4130.02  -4147.21  -4151.29  -4216.56  -4226.79  -4236.07  -4250.86  -4273.39  -4319  -4369.77  -4458.92  -4494.13  -4495.57  -4545.71  -4587.12  -4599.41  -4644.66  -4712.78  -4717.27  -4763.54  -4774  -4852.65  -4887.95  -4939.54  -5162.64  -5172.38  -5177.33  -5220.7  -5250.65  -5282.08  -5310.21  -5350.43  -5529.36  -5594.58  -5595.84  -5653.89  -5743.4  -5783.62  -5873.57  -5965.12  -5967.93  -6032.78  -6160.81  -6228.87  -6279.56  -6403.98  -6455.56  -6633.42  -6688.28  -6701.46  -6752.12  -6766.56  -6882.89  -6933.98  -7249.83  -7307.83  -7397.31  -7437.52  -7621.72  -7686.57  -7761.85  -7820  -7916.82  -7956.6  -8425.26  -8493.26  -8543.89  -8674.55  -8725.64  -8976.81  -9053.05  -9106.32  -9691.53  -9749.63  -9846.34  -9886.12  -10287.6  -10363.6  -11044.3  -11120.4  -11173.7  -11704.8  -12492.9  -12568.7  -14047.8  
29  0.0130948  0.0226808   2.52351  -2.52351  -1.55118  -27.3181  -59.7522  -66.5316  -91.4773  -94.803  -144.411  -163.55  -171.853  -196.26  -202.016  -228.14  -229.935  -240.744  -265.339  -282.539  -314.272  -323.367  -363.457  -370.678  -373.283  -415.512  -415.914  -431.211  -433.135  -466.302  -471.088  -482.156  -483.318  -523.262  -528.629  -535.052  -559.689  -565.034  -623.778  -627.309  -657.04  -658.958  -663.815  -722.643  -724.982  -726.228  -732.359  -777.062  -779.33  -792.62  -792.963  -795.407  -796.415  -851.43  -851.954  -864.763  -868.764  -907.601  -912.186  -920.68  -953.239  -953.416  -1039.98  -1040.46  -1043.84  -1043.95  -1089.36  -1098.4  -1099.69  -1124.25  -1124.25  -1184.09  -1185.53  -1185.84  -1197.08  -1212.19  -1212.47  -1225.87  -1226.55  -1263.72  -1263.73  -1270.51  -1271.39  -1327.13  -1327.15  -1363.23  -1364.39  -1392.48  -1405.71  -1411.91  -1469.1  -1469.1  -1508.8  -1508.92  -1577.67  -1578.23  -1583.46  -1583.46  -1610.84  -1610.84  -1627.8  -1628.14  -1640.68  -1676.31  -1676.31  -1715.45  -1715.53  -1737.06  -1737.07  -1748.17  -1763.21  -1784.35  -1784.61  -1799.33  -1799.35  -1834.13  -1834.69  -1838.2  -1838.2  -1925.12  -1925.13  -1963.76  -1963.79  -1999.66  -2015.04  -2036.7  -2068.5  -2068.54  -2105.44  -2105.45  -2126.79  -2126.89  -2187.07  -2187.12  -2218.18  -2218.83  -2242.79  -2242.79  -2248.29  -2248.34  -2254.75  -2254.78  -2309.59  -2309.71  -2311.99  -2324.81  -2324.91  -2367.82  -2367.93  -2390.71  -2390.8  -2431.42  -2447.17  -2459.52  -2459.63  -2494.65  -2494.67  -2495.48  -2496.13  -2533.05  -2533.13  -2643.73  -2643.8  -2682.08  -2682.16  -2714.56  -2714.61  -2729.51  -2745.39  -2780.16  -2783.29  -2783.75  -2832.95  -2833.08  -2851.08  -2851.8  -2860.97  -2861.04  -2916.22  -2918.8  -2960.94  -2961.64  -2976.74  -2982.18  -2990.19  -2990.99  -3006.48  -3006.57  -3021.68  -3021.68  -3058.89  -3061.08  -3076.81  -3081.67  -3101.82  -3108.67  -3114.49  -3166.96  -3171.53  -3234.21  -3236.79  -3241.47  -3250.26  -3281.96  -3286.63  -3309.14  -3309.37  -3347.49  -3351.84  -3451.61  -3452.22  -3481.51  -3485.49  -3509.52  -3512.48  -3519.98  -3523.87  -3580.15  -3597.31  -3601.12  -3605.15  -3605.27  -3637.29  -3642.33  -3643.3  -3667.97  -3734.9  -3739.59  -3746.51  -3761.72  -3812.38  -3819.59  -3822.39  -3826.61  -3879.55  -3883.76  -3911.15  -3923.16  -3923.5  -3947.35  -3953.02  -4015.09  -4067.25  -4132.53  -4157.21  -4174.4  -4189.65  -4242.34  -4251.79  -4274.92  -4284.35  -4343.49  -4393.03  -4446.78  -4478.46  -4521.25  -4558.57  -4566.42  -4619.5  -4628.23  -4688.05  -4731.37  -4737.58  -4802.83  -4865.85  -4871.65  -4911.02  -5151.98  -5189.24  -5207.8  -5220.46  -5247  -5299.46  -5338.58  -5374.72  -5559.82  -5568.29  -5616.89  -5626.05  -5717.62  -5753.76  -5905.68  -5944.22  -5985.78  -6000.97  -6189.79  -6258.29  -6307.74  -6436.02  -6481.19  -6603.34  -6671.81  -6721.24  -6722.02  -6790.51  -6855.83  -6900.57  -7281.36  -7339.05  -7430.61  -7466.73  -7657.08  -7713.83  -7729.38  -7787.22  -7886.08  -7921.87  -8459.17  -8527.6  -8577  -8711.48  -8756.22  -8941.78  -9018.39  -9070.58  -9727.98  -9785.77  -9884.52  -9920.3  -10250.2  -10325.8  -11083.1  -11159.6  -11211.8  -11664.8  -12534.2  -12609.8  -14091.4  
30  0.0112241  0.0194407   2.64575  -2.64575  -1.14571  -28.5601  -60.1834  -65.5549  -90.7347  -93.3563  -144.437  -167.505  -174.343  -196.138  -201.559  -223.065  -233.069  -236.748  -266.457  -281.332  -312.655  -320.565  -369.189  -370.344  -377.503  -415.979  -416.222  -437.235  -439.228  -458.922  -463.928  -480.969  -482.098  -520.904  -526.96  -531.369  -563.219  -569.059  -617.898  -622.014  -654.364  -666.419  -668.267  -724.992  -725.129  -733.495  -741.639  -784.053  -785.008  -785.401  -786.97  -795.064  -795.793  -847.171  -848.537  -856.451  -859.922  -901.498  -909.572  -919.906  -959.031  -959.233  -1036.69  -1036.83  -1051.87  -1052.34  -1075.8  -1110.03  -1111.27  -1124.37  -1124.37  -1184.78  -1184.79  -1197.99  -1199.48  -1199.78  -1210.5  -1235.19  -1236.11  -1257.53  -1258.43  -1267.45  -1267.46  -1321.77  -1321.81  -1352.3  -1353.75  -1377.83  -1390.71  -1427.65  -1476.67  -1476.67  -1523.08  -1523.2  -1574.7  -1574.7  -1592.34  -1592.87  -1610.72  -1610.72  -1623.74  -1641.35  -1641.71  -1677.32  -1677.32  -1700.22  -1700.29  -1734.52  -1734.53  -1765.5  -1769.5  -1769.77  -1780.57  -1810.02  -1810.05  -1818.22  -1818.76  -1844.19  -1844.19  -1917.82  -1917.83  -1951.83  -1951.87  -1981.12  -1996.47  -2055.76  -2085.32  -2085.35  -2114.7  -2114.71  -2143.32  -2143.42  -2187.18  -2187.23  -2232.58  -2232.58  -2236.73  -2237.38  -2247.28  -2247.33  -2269.33  -2269.37  -2291.28  -2292.07  -2292.43  -2328.3  -2328.4  -2349.94  -2350.04  -2385.57  -2385.66  -2443.64  -2443.75  -2452.11  -2467.88  -2475.65  -2476.29  -2506.94  -2506.96  -2540.85  -2540.92  -2634.73  -2634.79  -2668.6  -2668.67  -2707.63  -2723.5  -2733.77  -2733.82  -2801.78  -2802.88  -2804.08  -2850.97  -2851.44  -2851.57  -2851.7  -2871.86  -2871.94  -2917.23  -2919.7  -2970.03  -2970.83  -2974.19  -2979.76  -2983.22  -2983.93  -3009.61  -3009.63  -3022.34  -3022.43  -3039.11  -3041.26  -3078.33  -3082.57  -3087.38  -3087.77  -3093.68  -3159.89  -3164.47  -3219.71  -3224.38  -3258.2  -3258.47  -3263.16  -3274.26  -3323.06  -3323.33  -3356.97  -3361.28  -3470.88  -3473.35  -3473.95  -3474.72  -3504.96  -3508.74  -3531  -3533.97  -3554.98  -3572.13  -3605.37  -3624.6  -3628.51  -3656.81  -3662.03  -3667.23  -3668.84  -3739.16  -3747.21  -3750.1  -3752.13  -3796.78  -3807.33  -3848.02  -3852.22  -3890.36  -3897.02  -3901.21  -3909.49  -3909.75  -3922.59  -3960.56  -3988.27  -4058.48  -4113.87  -4162.83  -4184.5  -4201.69  -4257.93  -4267.6  -4295.46  -4299.06  -4368.01  -4416.46  -4434.74  -4461.45  -4530.11  -4548.46  -4587.22  -4594.41  -4657.16  -4663.36  -4711.79  -4745.56  -4831.76  -4843.84  -4882.6  -4890.74  -5131.66  -5190.37  -5215.91  -5238.36  -5273.41  -5316.93  -5366.99  -5399.16  -5540.81  -5590.37  -5598.31  -5639.29  -5691.89  -5724.06  -5920.61  -5937.88  -5969.25  -6006.54  -6218.85  -6287.73  -6336.1  -6468.16  -6506.91  -6573.33  -6642.19  -6690.52  -6755.85  -6814.56  -6828.87  -6867.26  -7312.95  -7370.38  -7463.95  -7496.1  -7692.53  -7696.98  -7741.17  -7754.54  -7855.38  -7887.3  -8493.15  -8561.98  -8610.27  -8748.5  -8786.9  -8906.83  -8983.77  -9035.01  -9764.49  -9822.01  -9922.73  -9954.65  -10212.8  -10288.2  -11122  -11198.8  -11250  -11624.8  -12575.6  -12650.9  -14135.2  
31  0.00935341  0.0162006   2.75157  -2.75157  -0.799007  -29.7183  -60.5942  -64.585  -90.1442  -92.0798  -144.294  -171.554  -177.159  -196.024  -200.933  -218.067  -231.968  -237.301  -267.556  -279.609  -311.706  -318.05  -365.562  -377.3  -384.3  -416.291  -416.419  -443.468  -445.613  -451.438  -456.591  -480.07  -481.214  -513.288  -519.183  -539.267  -566.855  -573.291  -612.09  -616.905  -645.201  -675.869  -677.64  -725.065  -725.11  -743.077  -751.086  -774.323  -775.5  -790.298  -791.502  -798.716  -800.823  -840.454  -843.782  -850.922  -852.76  -891.001  -898.633  -932.3  -964.932  -965.168  -1029.64  -1029.82  -1062.35  -1063.83  -1064.27  -1121.73  -1122.91  -1124.5  -1124.53  -1184.09  -1184.1  -1186.86  -1187.16  -1211.61  -1223.85  -1244.53  -1244.75  -1245.58  -1245.92  -1271.31  -1271.33  -1316.5  -1316.56  -1341.37  -1343.23  -1363.49  -1375.87  -1443.48  -1484.33  -1484.33  -1537.44  -1537.55  -1566.03  -1566.03  -1606.89  -1607.03  -1607.54  -1610.62  -1610.62  -1655.08  -1655.45  -1678.28  -1678.28  -1685.05  -1685.13  -1732.26  -1732.27  -1754.67  -1754.96  -1782.93  -1798  -1802.47  -1803  -1820.74  -1820.78  -1850.36  -1850.37  -1910.55  -1910.55  -1940.06  -1940.12  -1962.68  -1977.99  -2074.9  -2102.19  -2102.23  -2124.04  -2124.05  -2159.96  -2160.06  -2187.29  -2187.34  -2222.3  -2222.3  -2246.52  -2246.58  -2255.3  -2255.93  -2271.38  -2274.49  -2274.61  -2284.09  -2284.15  -2331.89  -2331.98  -2332.15  -2332.26  -2380.6  -2380.7  -2427.76  -2427.89  -2456.01  -2456.63  -2472.9  -2488.67  -2519.25  -2519.27  -2548.82  -2548.89  -2625.73  -2625.8  -2655.28  -2655.35  -2685.84  -2701.7  -2753.05  -2753.1  -2822.14  -2822.5  -2825.78  -2850.87  -2851.62  -2870.09  -2870.22  -2882.86  -2882.94  -2918.2  -2920.55  -2949.94  -2950.74  -2971.93  -2977.61  -2997.64  -2997.67  -3005.59  -3006.3  -3019.37  -3021.48  -3038.3  -3038.39  -3054.91  -3067.06  -3073.04  -3088.44  -3093.21  -3152.91  -3157.52  -3202.71  -3207.39  -3235.07  -3239.8  -3282.29  -3298.35  -3336.99  -3337.32  -3366.62  -3370.87  -3460.27  -3463.92  -3490.15  -3493.76  -3495.16  -3495.75  -3529.89  -3547.04  -3552.58  -3555.56  -3605.47  -3648.1  -3651.88  -3666.57  -3676.53  -3681.84  -3694.57  -3716.67  -3753.15  -3760.23  -3764.77  -3774.06  -3802.48  -3869.57  -3873.74  -3877.92  -3895.9  -3896.06  -3898.05  -3914.57  -3918.75  -3961.54  -3968.19  -4049.81  -4095.3  -4136.1  -4211.87  -4229.06  -4273.54  -4283.51  -4306.72  -4323.27  -4392.56  -4422.78  -4440.06  -4444.52  -4501.74  -4569.39  -4575.76  -4608.11  -4638.68  -4686.17  -4686.17  -4759.84  -4821.92  -4854.28  -4860.78  -4909.92  -5111.45  -5160.37  -5242.64  -5269.01  -5299.91  -5334.48  -5395.41  -5423.8  -5513.39  -5570.67  -5621.01  -5661.78  -5666.17  -5694.55  -5897.09  -5937.62  -5970.17  -6027.38  -6247.98  -6317.2  -6364.62  -6500.38  -6532.73  -6543.39  -6612.59  -6659.98  -6789.77  -6801.99  -6834.04  -6838.69  -7344.6  -7401.81  -7497.3  -7525.66  -7664.63  -7721.96  -7728.07  -7768.61  -7824.69  -7852.92  -8527.21  -8596.37  -8643.71  -8785.61  -8817.67  -8871.96  -8949.18  -8999.6  -9801.07  -9858.35  -9960.95  -9989.18  -10175.4  -10250.7  -11161  -11238.1  -11288.5  -11584.9  -12617  -12692.1  -14179  
32  0.00748273  0.0129605   2.83975  -2.83975  -0.513055  -30.7552  -60.967  -63.6746  -89.6906  -90.9946  -144.073  -175.686  -180.18  -195.919  -200.08  -213.164  -228.575  -240.483  -268.578  -277.489  -311.307  -315.873  -362.396  -384.312  -391.147  -416.521  -416.546  -443.93  -449.231  -449.899  -452.191  -479.368  -480.526  -505.784  -511.479  -547.146  -570.54  -577.659  -606.402  -612.027  -636.381  -685.391  -687.088  -725.038  -725.065  -752.787  -760.544  -764.179  -765.41  -793.067  -793.598  -805.428  -808.646  -831.677  -836.44  -847.827  -848.573  -880.708  -887.875  -944.775  -970.935  -971.224  -1022.67  -1022.9  -1049.01  -1075.84  -1076.27  -1124.54  -1124.55  -1133.62  -1134.78  -1174.24  -1174.56  -1183.55  -1183.56  -1225.26  -1231.95  -1232.89  -1237  -1254.04  -1255.9  -1275.36  -1275.41  -1311.27  -1311.39  -1330.43  -1332.9  -1349.55  -1361.21  -1459.4  -1492.08  -1492.09  -1551.86  -1551.97  -1557.44  -1557.45  -1590.13  -1610.53  -1610.53  -1621.74  -1622.23  -1668.98  -1669.37  -1669.96  -1670.04  -1679.15  -1679.15  -1730.33  -1730.33  -1739.86  -1740.17  -1786.9  -1787.41  -1800.44  -1815.51  -1831.43  -1831.5  -1856.76  -1856.77  -1903.25  -1903.26  -1928.49  -1928.59  -1944.36  -1959.61  -2094.15  -2119.13  -2119.17  -2133.47  -2133.48  -2176.71  -2176.8  -2187.38  -2187.43  -2212.08  -2212.08  -2245.91  -2245.96  -2251.35  -2256.98  -2257.06  -2273.84  -2274.45  -2299.09  -2299.17  -2314.47  -2314.57  -2335.53  -2335.62  -2375.85  -2375.94  -2411.85  -2411.99  -2436.6  -2437.2  -2493.77  -2509.56  -2531.52  -2531.54  -2557  -2557.07  -2616.71  -2616.77  -2642.18  -2642.25  -2664.13  -2679.98  -2772.41  -2772.46  -2841.96  -2842.14  -2848.13  -2850.78  -2851.54  -2888.83  -2888.96  -2894.04  -2894.11  -2919.08  -2921.32  -2929.92  -2930.73  -2969.98  -2975.74  -2985.77  -2985.83  -2999.64  -3001.73  -3028.05  -3028.75  -3031.57  -3046.53  -3052.58  -3054.36  -3054.45  -3094.41  -3099.14  -3146.04  -3150.66  -3185.81  -3190.47  -3211.77  -3216.54  -3306.46  -3322.54  -3350.88  -3351.31  -3376.49  -3380.65  -3449.67  -3453.02  -3475.63  -3478.96  -3504.9  -3517.03  -3517.61  -3522.05  -3574.27  -3577.25  -3605.55  -3666.02  -3671.57  -3675.19  -3694.23  -3696.46  -3701.9  -3720.4  -3751.45  -3756.68  -3772.88  -3777.5  -3797.87  -3848.75  -3873.63  -3882.4  -3882.57  -3899.55  -3903.71  -3932.22  -3934.91  -3936.38  -3975.92  -4041.23  -4076.82  -4109.46  -4239.33  -4256.52  -4289.15  -4299.5  -4318.17  -4347.55  -4410.92  -4417.12  -4427.69  -4463.84  -4473.46  -4544.45  -4603.14  -4614.02  -4629.11  -4660.73  -4715.27  -4774.21  -4800.08  -4826.05  -4889.88  -4929.2  -5091.32  -5130.45  -5269.43  -5299.76  -5326.52  -5352.13  -5423.8  -5448.66  -5486.03  -5543.14  -5640.42  -5651.75  -5665.27  -5684.36  -5873.66  -5906.08  -6002.55  -6048.32  -6277.19  -6346.7  -6393.32  -6513.52  -6532.69  -6558.65  -6583.01  -6629.61  -6775.2  -6800.93  -6823.78  -6862.92  -7376.32  -7433.34  -7530.62  -7555.44  -7632.36  -7689.49  -7763.7  -7793.97  -7796.13  -7818.77  -8561.33  -8630.79  -8677.33  -8822.81  -8837.16  -8848.54  -8914.62  -8964.36  -9837.71  -9894.79  -9999.14  -10023.9  -10138.2  -10213.3  -11200  -11277.4  -11327.1  -11545.1  -12658.5  -12733.5  -14222.8  
33  0.00561204  0.00972035   2.90931  -2.90931  -0.289308  -31.6289  -61.2833  -62.8809  -89.3579  -90.1219  -143.842  -179.88  -183.289  -195.814  -198.93  -208.39  -225.62  -243.568  -269.465  -275.187  -311.278  -314.092  -359.786  -391.358  -398.011  -416.604  -416.715  -436.546  -441.926  -456.431  -458.876  -478.831  -479.992  -498.396  -503.94  -554.858  -574.175  -581.907  -601.063  -607.471  -628.017  -694.983  -696.61  -724.999  -725.021  -754.092  -755.372  -762.526  -769.97  -794.39  -794.788  -813.568  -817.42  -822.287  -827.709  -845.8  -846.238  -870.638  -877.312  -957.314  -977.036  -977.409  -1015.77  -1016.09  -1035.79  -1087.92  -1088.34  -1124.62  -1124.62  -1145.54  -1146.67  -1161.72  -1162.05  -1183.09  -1183.09  -1219.3  -1220.27  -1238.87  -1249.74  -1263.39  -1266.09  -1279.63  -1279.8  -1305.97  -1306.28  -1319.57  -1322.85  -1336.19  -1346.78  -1475.42  -1499.93  -1499.93  -1548.95  -1548.95  -1566.37  -1566.47  -1573.47  -1610.46  -1610.46  -1636.47  -1636.94  -1654.94  -1655.02  -1679.86  -1679.87  -1683.1  -1683.49  -1725.04  -1725.37  -1728.79  -1728.8  -1771.51  -1772.01  -1818.04  -1833.04  -1842.03  -1842.2  -1863.45  -1863.45  -1895.87  -1895.88  -1917.12  -1917.32  -1926.21  -1941.33  -2113.48  -2136.12  -2136.16  -2143  -2143.01  -2187.45  -2187.5  -2193.56  -2193.65  -2201.95  -2201.95  -2231.39  -2239.53  -2239.61  -2245.42  -2245.48  -2292.29  -2292.87  -2296.89  -2296.99  -2314.37  -2314.49  -2339.12  -2339.21  -2371.4  -2371.5  -2395.84  -2396.01  -2417.49  -2418.05  -2514.74  -2530.53  -2543.69  -2543.71  -2565.48  -2565.54  -2607.59  -2607.64  -2629.37  -2629.43  -2642.52  -2658.36  -2791.84  -2791.89  -2850.72  -2851.48  -2861.68  -2861.8  -2870.69  -2904.72  -2904.79  -2908.32  -2908.45  -2909.97  -2910.79  -2919.83  -2921.98  -2968.31  -2973.02  -2974.05  -2975.25  -2979.97  -2982.02  -3008.32  -3026.19  -3032.29  -3050.59  -3051.29  -3070.52  -3070.62  -3100.48  -3105.17  -3139.27  -3143.92  -3168.99  -3173.63  -3188.58  -3193.4  -3330.73  -3346.81  -3364.68  -3365.26  -3386.65  -3390.65  -3439.02  -3441.92  -3461.49  -3464.39  -3479.99  -3497.14  -3538.96  -3539.54  -3596.06  -3599.04  -3605.61  -3665.58  -3671.86  -3694.94  -3698.4  -3716.7  -3722.26  -3728.94  -3746.31  -3760.09  -3785.66  -3790.32  -3793.61  -3827.83  -3849.58  -3868.99  -3869.1  -3908.36  -3925.45  -3929.59  -3949.96  -3954.11  -3983.74  -4032.74  -4058.44  -4082.92  -4266.89  -4284.08  -4304.71  -4315.59  -4329.86  -4371.9  -4399.15  -4410.95  -4441.71  -4445.28  -4487.79  -4519.58  -4589.38  -4630.6  -4635.46  -4650.21  -4744.47  -4778.33  -4788.67  -4797.94  -4919.08  -4948.57  -5071.28  -5100.64  -5296.29  -5330.59  -5353.23  -5369.87  -5452.1  -5458.74  -5473.81  -5515.7  -5614.58  -5636.28  -5682.57  -5707.03  -5850.32  -5874.64  -6035.02  -6069.35  -6306.46  -6376.2  -6422.2  -6483.73  -6553.45  -6565.08  -6584.68  -6599.42  -6748.49  -6767.92  -6857.89  -6887.24  -7408.09  -7464.98  -7563.84  -7585.52  -7600.14  -7657.13  -7763.15  -7784.91  -7799.43  -7823.75  -8595.53  -8665.22  -8711.14  -8802.43  -8860.09  -8879.52  -8880.08  -8929.29  -9874.41  -9931.34  -10037.2  -10059  -10101  -10176  -11239.1  -11316.7  -11365.8  -11505.4  -12700.1  -12775  -14266.8  
34  0.00374136  0.00648023   2.95952  -2.95952  -0.128802  -32.2956  -61.5252  -62.2611  -89.1316  -89.4814  -143.646  -184.09  -186.351  -195.673  -197.43  -203.83  -223.357  -246.243  -270.157  -273.01  -311.428  -312.763  -357.827  -398.393  -404.801  -416.533  -416.944  -429.366  -434.714  -463.097  -465.58  -478.448  -479.587  -491.131  -496.665  -562.239  -577.557  -584.887  -597.173  -603.434  -620.309  -704.643  -706.202  -724.965  -724.986  -744.078  -745.412  -772.232  -779.25  -795.104  -795.638  -812.67  -818.492  -822.338  -826.669  -844.388  -844.814  -860.848  -866.977  -969.871  -983.219  -983.756  -1008.92  -1009.41  -1022.75  -1100.07  -1100.46  -1124.68  -1124.68  -1149.27  -1149.61  -1157.57  -1158.67  -1182.75  -1182.76  -1206.76  -1207.75  -1252.34  -1261.77  -1272.26  -1275.9  -1284.24  -1285  -1300.04  -1301.14  -1309.43  -1313.44  -1323.68  -1332.68  -1491.52  -1507.87  -1507.87  -1540.55  -1540.55  -1556.9  -1580.94  -1581.05  -1610.41  -1610.41  -1639.99  -1640.08  -1651.22  -1651.66  -1680.45  -1680.45  -1697.35  -1697.76  -1710.27  -1710.62  -1727.62  -1727.63  -1756.3  -1756.78  -1835.71  -1850.02  -1852.42  -1853.31  -1870.53  -1870.54  -1888.29  -1888.31  -1905.51  -1906.45  -1908.82  -1923.16  -2132.9  -2152.33  -2152.34  -2153.47  -2153.5  -2187.48  -2187.53  -2191.93  -2191.93  -2210.52  -2210.61  -2211.51  -2222.15  -2222.22  -2245.07  -2245.13  -2279.41  -2279.52  -2310.56  -2311.09  -2330.04  -2330.2  -2342.47  -2342.56  -2367.44  -2367.54  -2379.63  -2379.85  -2398.79  -2399.29  -2535.79  -2551.6  -2555.64  -2555.68  -2574.35  -2574.41  -2598.25  -2598.29  -2616.95  -2617  -2621.01  -2636.84  -2811.35  -2811.4  -2850.67  -2851.44  -2881.38  -2881.46  -2890.1  -2890.92  -2893.37  -2916.08  -2916.17  -2920.48  -2922.53  -2927.35  -2927.48  -2959.98  -2961.43  -2962.35  -2962.87  -2967.5  -2973.43  -2985.16  -3006.04  -3012.18  -3073.19  -3073.88  -3086.82  -3086.91  -3106.63  -3111.27  -3132.62  -3137.31  -3152.22  -3156.82  -3165.52  -3170.41  -3355.09  -3371.18  -3378.26  -3379.08  -3397.2  -3400.96  -3428.26  -3430.46  -3447.9  -3450.12  -3455.18  -3472.33  -3560.95  -3561.53  -3605.66  -3617.94  -3620.93  -3649.56  -3665.26  -3706.54  -3718.12  -3721.42  -3737.32  -3743.01  -3763.19  -3772.32  -3789.86  -3798.58  -3803.23  -3806.71  -3825.91  -3855.68  -3855.74  -3881.91  -3951.44  -3955.57  -3967.79  -3971.93  -3991.66  -4024.35  -4040.14  -4056.47  -4294.54  -4311.73  -4320.15  -4331.77  -4341.85  -4387.48  -4394.3  -4396.33  -4417.18  -4466.3  -4494.78  -4511.93  -4564.75  -4610.38  -4658.12  -4671.44  -4756.63  -4769.95  -4773.75  -4803.22  -4948.37  -4968.03  -5051.34  -5070.91  -5323.2  -5361.52  -5380.05  -5387.71  -5431.51  -5480.21  -5488.37  -5499.36  -5588.54  -5607.67  -5713.49  -5729.8  -5827.07  -5843.29  -6067.58  -6090.47  -6335.82  -6405.72  -6451.26  -6454.01  -6523.9  -6569.41  -6597.52  -6610.84  -6721.84  -6735.04  -6892.08  -6911.65  -7439.93  -7496.72  -7567.99  -7596.88  -7615.98  -7624.87  -7732.14  -7751.44  -7835.24  -7851.46  -8629.81  -8699.66  -8745.12  -8767.79  -8845.58  -8894.39  -8897.43  -8910.63  -9911.17  -9968  -10063.9  -10075.1  -10094.4  -10138.8  -11278.3  -11356  -11404.8  -11465.8  -12741.8  -12816.5  -14310.9  
35  0.00187068  0.00324012   2.98985  -2.98985  -0.0322332  -32.715  -61.6774  -61.8655  -89.0006  -89.0896  -143.517  -188.139  -189.131  -195.306  -195.654  -199.853  -221.937  -248.15  -270.598  -271.374  -311.593  -311.94  -356.609  -405.245  -411.043  -415.957  -417.581  -422.957  -427.715  -469.867  -471.994  -478.205  -479.225  -484.018  -490.03  -568.879  -580.23  -583.765  -597.438  -600.37  -613.784  -714.361  -715.847  -724.938  -724.97  -734.152  -735.54  -781.769  -787.916  -795.09  -796.552  -803.67  -809.493  -831.119  -835.724  -843.323  -844.224  -851.635  -856.975  -982.257  -989.42  -990.377  -1001.99  -1002.9  -1010.08  -1112.27  -1112.65  -1124.72  -1124.72  -1136.88  -1137.23  -1169.7  -1170.77  -1182.55  -1182.55  -1194.33  -1195.34  -1265.46  -1272.48  -1279.26  -1282.85  -1288.38  -1291.97  -1293  -1296.67  -1302.38  -1305.9  -1312.53  -1319.09  -1507.72  -1515.9  -1515.91  -1532.23  -1532.25  -1540.43  -1595.6  -1595.69  -1610.38  -1610.38  -1625.12  -1625.21  -1665.97  -1666.39  -1680.81  -1680.81  -1695.5  -1695.87  -1711.8  -1712.23  -1726.91  -1726.91  -1741.28  -1741.75  -1853.41  -1861.92  -1862.45  -1869.1  -1877.79  -1877.86  -1880.68  -1880.76  -1889.44  -1896.14  -1896.65  -1905.14  -2152.42  -2162.23  -2162.24  -2170.38  -2170.42  -2181.88  -2181.88  -2187.59  -2187.64  -2191.73  -2204.83  -2204.9  -2227.58  -2227.67  -2244.86  -2244.92  -2262.04  -2262.14  -2328.52  -2328.97  -2345.08  -2345.16  -2346.27  -2346.5  -2363.04  -2363.32  -2364.47  -2364.56  -2380.61  -2381.04  -2556.94  -2567.2  -2567.25  -2572.77  -2583.8  -2583.84  -2588.54  -2588.56  -2599.57  -2605.12  -2605.15  -2615.4  -2830.92  -2830.97  -2850.63  -2851.41  -2870.3  -2871.12  -2901.07  -2901.13  -2916.15  -2920.65  -2922.62  -2927.64  -2927.76  -2940.44  -2942.46  -2946.71  -2946.85  -2950.63  -2950.64  -2962.09  -2966.67  -2972.73  -2986.07  -2992.25  -3095.76  -3096.42  -3103.33  -3103.44  -3112.81  -3117.36  -3126.13  -3130.89  -3135.44  -3139.91  -3142.69  -3147.7  -3379.54  -3391.45  -3392.68  -3395.64  -3408.32  -3411.68  -3417.26  -3418.46  -3430.46  -3435.03  -3436.26  -3447.6  -3583.01  -3583.59  -3605.69  -3627.31  -3639.94  -3642.91  -3665.07  -3684.23  -3740.97  -3744.15  -3758.46  -3764.25  -3765.56  -3785.27  -3787.13  -3798.43  -3802.76  -3811.55  -3816.23  -3842.45  -3842.46  -3855.55  -3977.52  -3981.63  -3985.71  -3989.85  -3999.67  -4016.06  -4021.94  -4030.11  -4322.27  -4335.33  -4339.47  -4348.04  -4354.28  -4375.89  -4377.74  -4389.18  -4420.83  -4470.06  -4490.9  -4536.26  -4540.13  -4585.49  -4685.61  -4692.9  -4734.9  -4742.18  -4803.13  -4817.87  -4977.75  -4987.58  -5031.49  -5041.27  -5350.18  -5392.54  -5404.34  -5405.63  -5406.96  -5461.14  -5507.99  -5525.42  -5562.18  -5579.59  -5744.5  -5752.66  -5803.91  -5812.03  -6100.24  -6111.68  -6365.24  -6424.36  -6435.24  -6480.51  -6494.35  -6539.59  -6629.93  -6637.21  -6695.15  -6702.39  -6926.37  -6936.16  -7471.84  -7528.56  -7535.9  -7592.72  -7629.59  -7646.97  -7700.82  -7718.48  -7871.15  -7879.27  -8664.16  -8733.21  -8734.11  -8779.3  -8811.09  -8859.67  -8934.73  -8941.96  -9948  -10004.8  -10026.9  -10101.7  -10112.7  -10130.4  -11317.6  -11395.3  -11426.3  -11443.9  -12783.5  -12858.2  -14355.1  
36  0  0   3  -3  0  -32.8584  -61.7293  -61.7293  -88.9577  -88.9577  -143.473  -190.668  -190.668  -194.464  -194.464  -198.068  -221.454  -248.86  -270.75  -270.75  -311.661  -311.661  -356.194  -410.091  -413.948  -413.948  -420.074  -420.074  -422.275  -476.016  -476.016  -477.22  -478.658  -478.658  -486.382  -572.577  -581.325  -581.325  -599.145  -599.145  -610.571  -723.549  -724.197  -724.197  -725.627  -725.627  -726.45  -789.254  -792.399  -792.399  -799.039  -799.039  -802.702  -838.171  -841.073  -841.073  -846.344  -846.344  -849.008  -992.427  -994.258  -994.258  -997.964  -997.964  -999.865  -1124.36  -1124.54  -1124.54  -1124.91  -1124.91  -1125.09  -1181.45  -1181.96  -1181.96  -1183  -1183  -1183.53  -1276.32  -1278.65  -1278.65  -1284.72  -1284.72  -1291.09  -1294.59  -1300.57  -1300.57  -1305.84  -1305.84  -1307.76  -1523.57  -1523.8  -1523.8  -1524.25  -1524.25  -1524.48  -1610.27  -1610.32  -1610.32  -1610.42  -1610.42  -1610.46  -1680.53  -1680.73  -1680.73  -1681.13  -1681.13  -1681.33  -1726.22  -1726.45  -1726.45  -1726.89  -1726.9  -1727.12  -1869.77  -1870.55  -1870.56  -1872.35  -1872.35  -1873.43  -1885.17  -1886.18  -1886.18  -1887.83  -1887.83  -1888.54  -2171.98  -2172  -2172  -2172.05  -2172.05  -2172.08  -2187.56  -2187.58  -2187.58  -2187.61  -2187.64  -2187.66  -2244.71  -2244.76  -2244.77  -2244.84  -2244.88  -2244.91  -2345.87  -2346.04  -2346.07  -2346.41  -2346.44  -2346.62  -2362.9  -2363.06  -2363.09  -2363.38  -2363.43  -2363.57  -2577.99  -2578.1  -2578.12  -2578.33  -2578.35  -2578.46  -2593.83  -2593.93  -2593.94  -2594.14  -2594.16  -2594.26  -2850.58  -2850.58  -2850.62  -2850.62  -2851.4  -2851.4  -2920.76  -2920.77  -2920.8  -2920.82  -2922.8  -2922.8  -2938.97  -2939.04  -2939.05  -2939.12  -2939.16  -2939.2  -2966.28  -2966.3  -2966.42  -2966.44  -2972.5  -2972.5  -3117.39  -3117.6  -3117.67  -3117.9  -3120.84  -3120.98  -3121.12  -3121.33  -3121.95  -3122  -3126.29  -3126.3  -3404.08  -3404.1  -3405.81  -3405.84  -3405.87  -3405.88  -3420.18  -3420.2  -3422.96  -3422.97  -3423  -3423.01  -3605.13  -3605.13  -3605.71  -3605.71  -3662.03  -3662.03  -3665  -3665  -3763.38  -3763.38  -3766.5  -3766.5  -3780.25  -3780.26  -3786.06  -3786.06  -3824.61  -3824.62  -3829.27  -3829.28  -3829.32  -3829.32  -4003.49  -4003.62  -4003.92  -4004.05  -4007.54  -4007.54  -4008.11  -4008.11  -4350.1  -4350.1  -4361.27  -4361.27  -4364.4  -4364.4  -4367.3  -4367.3  -4445.41  -4445.41  -4515.51  -4515.52  -4560.77  -4560.79  -4712.1  -4712.18  -4715.52  -4715.59  -4832.6  -4832.6  -5007.21  -5007.25  -5011.71  -5011.75  -5377.23  -5377.24  -5423.64  -5423.64  -5433.98  -5434.02  -5535.32  -5535.37  -5552.14  -5552.17  -5775.39  -5775.82  -5780.64  -5781.07  -6132.98  -6132.98  -6394.74  -6394.79  -6464.78  -6464.81  -6509.95  -6509.96  -6661.36  -6664.76  -6667.48  -6670.9  -6960.73  -6960.77  -7503.8  -7503.87  -7560.5  -7560.67  -7661.84  -7669.07  -7678.61  -7686.14  -7906.94  -7907.37  -8698.58  -8698.72  -8768.56  -8776.62  -8813.66  -8825.12  -8971.04  -8974.46  -9984.89  -9989.94  -10041.6  -10064.8  -10149.9  -10167  -11357  -11386.9  -11434.7  -11483.2  -12825.3  -12900  -14399.3  
